Folder: Polymer_electronics_multimodal_database/conjugated_ECPs/uv_vis_automated/Macromolecules, 51, 22, 9250-9258, 2018/metadata

Note: conjugated_ECPs/README.md
The files are organized as following:

File: DMOT.csv
wavelength,absor
82,0.421053
84,0.432749
86,0.444444
88,0.432749
90,0.444444
92,0.479532
94,0.467836
96,0.508772
98,0.526316
100,0.51462
102,0.549708
104,0.567251
106,0.578947
108,0.596491
110,0.614035
112,0.631579
114,0.649123
116,0.666667
118,0.654971
120,0.701754
122,0.719298
124,0.736842
126,0.748538
128,0.77193
130,0.783626
132,0.80117
134,0.824561
136,0.842105
138,0.853801
140,0.871345
142,0.888889
144,0.900585
146,0.912281
148,0.900585
150,0.94152
152,0.947368
154,0.959064
156,0.97076
158,0.959064
160,0.974659
162,0.994152
164,1
166,0.988304
168,0.986745
170,0.985185
172,0.983626
174,0.982066
176,0.980507
178,0.978947
180,0.977388
182,0.975828
184,0.974269
186,0.97271
188,0.97115
190,0.969591
192,0.968031
194,0.966472
196,0.964912
198,0.959064
200,0.947368
202,0.94152
204,0.906433
206,0.906433
208,0.894737
210,0.883041
212,0.883041
214,0.861598
216,0.840156
218,0.818713
220,0.830409
222,0.818713
224,0.807018
226,0.789474
228,0.754386
230,0.766082
232,0.725146
234,0.736842
236,0.719298
238,0.678363
240,0.684211
242,0.643275
244,0.654971
246,0.631579
248,0.606238
250,0.590643
252,0.602339
254,0.590643
256,0.549708
258,0.561404
260,0.52924
262,0.532164
264,0.51462
266,0.497076
268,0.444444
270,0.461988
272,0.444444
274,0.415205
276,0.397661
278,0.358396
280,0.350042
282,0.341688
284,0.333333
286,0.324979
288,0.316625
290,0.308271
292,0.298246
294,0.269006
296,0.280702
298,0.25731
300,0.245614
302,0.245614
304,0.233918
306,0.222222
308,0.204678
310,0.181287
312,0.163743
314,0.146199
316,0.128655
318,0.102339
320,0.0701754
322,0.0818713
324,0.0467836
326,0.0584795
328,0.0292398
330,0.0409357
332,0.0350877
334,0.025731
336,0.0163743
338,0.0233918
340,0.00935673
342,0.00701754
344,0.00584795
346,0.0175439
348,0.0150376
350,0.0125313
352,0.0100251
354,0.0075188
356,0.00501253
358,0.00250627
360,0.0
362,0.0
364,0.0
366,0.0116959
368,0.0116959
370,0.0116959
372,0.0116959
374,0.0116959
376,0.0116959
378,0.0116959
380,0.0116959
382,0.0116959
384,0.0116959
386,0.0116959
387,0.0116959

File: DMP.csv
wavelength,absor
56,0.344633
58,0.344633
60,0.344633
62,0.333333
64,0.322034
66,0.305085
68,0.299435
70,0.293785
72,0.288136
74,0.282486
76,0.282486
78,0.276836
80,0.276836
82,0.276836
84,0.282486
86,0.282486
88,0.288136
90,0.293785
92,0.293785
94,0.299435
96,0.305085
98,0.316384
100,0.316384
102,0.310734
104,0.310734
106,0.322034
108,0.333333
110,0.344633
112,0.350282
114,0.361582
116,0.372881
118,0.384181
120,0.39548
122,0.412429
124,0.423729
126,0.429379
128,0.446328
130,0.457627
132,0.474576
134,0.478814
136,0.498588
138,0.518362
140,0.538136
142,0.55791
144,0.577684
146,0.59322
148,0.615819
150,0.627119
152,0.649718
154,0.661017
156,0.689266
158,0.694915
160,0.725047
162,0.740113
164,0.751412
166,0.774011
168,0.785311
170,0.80226
172,0.819209
174,0.836158
176,0.853107
178,0.870056
180,0.887006
182,0.903955
184,0.920904
186,0.932203
188,0.937853
190,0.949153
192,0.954802
194,0.966102
196,0.971751
198,0.983051
200,0.988701
202,0.986817
204,0.99435
206,0.996234
208,1.0
210,1.0
212,1.0
214,0.99322
216,0.99096
218,0.988701
220,0.983051
222,0.983051
224,0.971751
226,0.966102
228,0.960452
230,0.947269
232,0.943503
234,0.926554
236,0.915254
238,0.903955
240,0.887006
242,0.870056
244,0.847458
246,0.836158
248,0.809322
250,0.789548
252,0.779661
254,0.751412
256,0.728814
258,0.706215
260,0.683616
262,0.661017
264,0.632768
266,0.59322
268,0.570621
270,0.553672
272,0.525424
274,0.491525
276,0.463277
278,0.440678
280,0.40113
282,0.378531
284,0.344633
286,0.310734
288,0.288136
290,0.271186
292,0.254237
294,0.231638
296,0.20339
298,0.186441
300,0.163842
302,0.146893
304,0.129944
306,0.112994
308,0.0960452
310,0.079096
312,0.0677966
314,0.0564972
316,0.0451977
318,0.039548
320,0.0338983
322,0.0254237
324,0.0225989
326,0.0169492
328,0.0131827
330,0.0112994
332,0.0112994
334,0.0112994
336,0.00533584
338,0.00502197
340,0.0047081
342,0.00439422
344,0.00408035
346,0.00376648
348,0.00345261
350,0.00313873
352,0.00282486
354,0.00251099
356,0.00219711
358,0.00188324
360,0.00156937
362,0.00125549
364,0.00094162
366,0.000627746
368,0.000313873
370,0.0
372,0.0
374,0.0
376,0.0
378,0.0
380,0.0
382,0.0

File: EDOT.csv
wavelength,absor
310,0.417996
311,0.414217
312,0.410438
313,0.406659
314,0.403355
315,0.400088
316,0.39682
317,0.39411
318,0.391617
319,0.389124
320,0.386763
321,0.385219
322,0.383674
323,0.38213
324,0.38105
325,0.38013
326,0.37921
327,0.378572
328,0.378457
329,0.378342
330,0.378227
331,0.379007
332,0.379829
333,0.38065
334,0.381979
335,0.383704
336,0.38543
337,0.387308
338,0.389954
339,0.392599
340,0.395244
341,0.398296
342,0.401467
343,0.404638
344,0.408014
345,0.411727
346,0.415441
347,0.419154
348,0.420742
349,0.422295
350,0.423847
351,0.427775
352,0.432523
353,0.437272
354,0.442387
355,0.447588
356,0.452839
357,0.458307
358,0.463774
359,0.469534
360,0.475409
361,0.481566
362,0.488139
363,0.494662
364,0.501032
365,0.507433
366,0.514169
367,0.520904
368,0.52799
369,0.535105
370,0.542228
371,0.549356
372,0.556535
373,0.563774
374,0.57123
375,0.578705
376,0.586216
377,0.593925
378,0.601822
379,0.6095
380,0.617066
381,0.62481
382,0.632597
383,0.640704
384,0.648895
385,0.657281
386,0.665422
387,0.673375
388,0.681327
389,0.689279
390,0.697232
391,0.705186
392,0.713304
393,0.721396
394,0.729348
395,0.737284
396,0.745181
397,0.753053
398,0.760895
399,0.768803
400,0.776756
401,0.784583
402,0.79237
403,0.799809
404,0.807209
405,0.814609
406,0.822053
407,0.829674
408,0.837066
409,0.844024
410,0.8509
411,0.857693
412,0.864557
413,0.87146
414,0.878312
415,0.88515
416,0.891409
417,0.897511
418,0.903475
419,0.909284
420,0.915092
421,0.920435
422,0.925778
423,0.930928
424,0.935909
425,0.94089
426,0.945277
427,0.949471
428,0.953666
429,0.957646
430,0.961425
431,0.965205
432,0.968902
433,0.972011
434,0.975119
435,0.978196
436,0.980396
437,0.982597
438,0.984798
439,0.986998
440,0.989199
441,0.990661
442,0.991926
443,0.993191
444,0.99419
445,0.994782
446,0.995373
447,0.995964
448,0.995964
449,0.995964
450,0.995964
451,0.995506
452,0.994751
453,0.993995
454,0.992961
455,0.991446
456,0.989931
457,0.988415
458,0.9869
459,0.985385
460,0.983429
461,0.981244
462,0.979059
463,0.97674
464,0.974045
465,0.97135
466,0.968656
467,0.965633
468,0.962561
469,0.959488
470,0.956159
471,0.952544
472,0.948929
473,0.945277
474,0.941187
475,0.937097
476,0.933007
477,0.92875
478,0.92446
479,0.920171
480,0.915677
481,0.911138
482,0.9066
483,0.901538
484,0.896464
485,0.891491
486,0.886705
487,0.881919
488,0.876865
489,0.871612
490,0.86636
491,0.861312
492,0.856315
493,0.851326
494,0.846369
495,0.841412
496,0.836305
497,0.831077
498,0.825849
499,0.820841
500,0.815897
501,0.810937
502,0.805891
503,0.800845
504,0.795742
505,0.790628
506,0.785513
507,0.780399
508,0.775285
509,0.770173
510,0.765076
511,0.759979
512,0.754848
513,0.749683
514,0.744518
515,0.739433
516,0.734359
517,0.729308
518,0.724326
519,0.719343
520,0.714372
521,0.709415
522,0.704457
523,0.69974
524,0.695124
525,0.690509
526,0.685988
527,0.681495
528,0.677002
529,0.672747
530,0.6686
531,0.664454
532,0.660442
533,0.656597
534,0.652753
535,0.648926
536,0.645426
537,0.641927
538,0.638427
539,0.635068
540,0.631782
541,0.628496
542,0.625162
543,0.621695
544,0.618228
545,0.614761
546,0.61118
547,0.607582
548,0.603984
549,0.60019
550,0.596181
551,0.592172
552,0.588149
553,0.583963
554,0.579776
555,0.57559
556,0.571166
557,0.566697
558,0.562228
559,0.557404
560,0.552544
561,0.547707
562,0.543019
563,0.538331
564,0.533608
565,0.528822
566,0.524036
567,0.519396
568,0.514864
569,0.510332
570,0.506049
571,0.501903
572,0.497756
573,0.493725
574,0.489864
575,0.486003
576,0.482148
577,0.478862
578,0.475576
579,0.472289
580,0.469231
581,0.466314
582,0.463398
583,0.460481
584,0.457658
585,0.454879
586,0.452099
587,0.449377
588,0.446665
589,0.443954
590,0.441037
591,0.43785
592,0.434662
593,0.431457
594,0.427809
595,0.424162
596,0.420514
597,0.41647
598,0.412207
599,0.407943

File: ProDOT.csv
wavelength,absor
58,
59,0.13522
60,0.132075
61,0.138365
62,0.138365
63,0.123428
64,0.121069
65,0.118711
66,0.116352
67,0.113994
68,0.111635
69,0.109277
70,0.106918
71,0.106918
72,0.106918
73,0.0943396
74,0.100629
75,0.100629
76,0.0947589
77,0.0951782
78,0.0955975
79,0.0960168
80,0.0964361
81,0.0968553
82,0.0972746
83,0.0976939
84,0.0981132
85,0.0985325
86,0.0989518
87,0.0993711
88,0.0997904
89,0.10021
90,0.100629
91,0.106918
92,0.106918
93,0.110063
94,0.113208
95,0.113208
96,0.113208
97,0.106918
98,0.110512
99,0.114106
100,0.1177
101,0.121294
102,0.124888
103,0.128482
104,0.132075
105,0.132075
106,0.138365
107,0.138365
108,0.144654
109,0.144654
110,0.150943
111,0.150943
112,0.157233
113,0.157233
114,0.150943
115,0.160377
116,0.169811
117,0.163522
118,0.172956
119,0.18239
120,0.18239
121,0.176101
122,0.194969
123,0.194969
124,0.201258
125,0.207547
126,0.210692
127,0.213836
128,0.201258
129,0.220126
130,0.220126
131,0.226415
132,0.232704
133,0.238994
134,0.245283
135,0.232704
136,0.240042
137,0.247379
138,0.254717
139,0.262055
140,0.269392
141,0.27673
142,0.283019
143,0.289308
144,0.295597
145,0.295597
146,0.301887
147,0.308176
148,0.314465
149,0.320755
150,0.327044
151,0.333333
152,0.339623
153,0.345912
154,0.352201
155,0.358491
156,0.36478
157,0.371069
158,0.377358
159,0.383648
160,0.389937
161,0.396226
162,0.396226
163,0.396226
164,0.415094
165,0.408805
166,0.427673
167,0.421384
168,0.433962
169,0.446541
170,0.459119
171,0.468553
172,0.477987
173,0.484277
174,0.490566
175,0.496855
176,0.496855
177,0.515723
178,0.509434
179,0.528302
180,0.540881
181,0.54717
182,0.559748
183,0.566038
184,0.572327
185,0.578616
186,0.591195
187,0.578616
188,0.584906
189,0.616352
190,0.625786
191,0.63522
192,0.641509
193,0.654088
194,0.641509
195,0.650314
196,0.665409
197,0.680503
198,0.695597
199,0.710692
200,0.716981
201,0.72327
202,0.72956
203,0.742138
204,0.754717
205,0.761006
206,0.773585
207,0.779874
208,0.779874
209,0.779874
210,0.805031
211,0.811321
212,0.823899
213,0.823899
214,0.823899
215,0.842767
216,0.849057
217,0.855346
218,0.849057
219,0.874214
220,0.880503
221,0.893082
222,0.899371
223,0.90566
224,0.90566
225,0.902166
226,0.911251
227,0.920335
228,0.92942
229,0.938505
230,0.947589
231,0.956674
232,0.965758
233,0.974843
234,0.974843
235,0.981132
236,0.974843
237,0.987421
238,0.993711
239,0.983229
240,0.985325
241,0.987421
242,0.989518
243,0.991614
244,0.993711
245,0.995807
246,0.997904
247,1.0
248,1.0
249,1.0
250,0.989518
251,0.991614
252,0.993711
253,0.993711
254,0.983229
255,0.985325
256,0.987421
257,0.981132
258,0.981132
259,0.981132
260,0.981132
261,0.981132
262,0.981132
263,0.974843
264,0.974843
265,0.974843
266,0.974843
267,0.974843
268,0.968553
269,0.968553
270,0.962264
271,0.962264
272,0.955975
273,0.949686
274,0.937107
275,0.924528
276,0.91195
277,0.899371
278,0.90566
279,0.899371
280,0.880503
281,0.874214
282,0.855346
283,0.849057
284,0.830189
285,0.81761
286,0.798742
287,0.786164
288,0.761006
289,0.748428
290,0.735849
291,0.72327
292,0.704403
293,0.685535
294,0.672956
295,0.654088
296,0.647799
297,0.628931
298,0.597484
299,0.597484
300,0.603774
301,0.591195
302,0.591195
303,0.578616
304,0.578616
305,0.575472
306,0.572327
307,0.566038
308,0.559748
309,0.553459
310,0.534591
311,0.540881
312,0.534591
313,0.528302
314,0.522013
315,0.515723
316,0.503145
317,0.496855
318,0.484277
319,0.459119
320,0.459119
321,0.45283
322,0.412998
323,0.385744
324,0.358491
325,0.358491
326,0.36478
327,0.339623
328,0.327044
329,0.295597
330,0.283019
331,0.251572
332,0.238994
333,0.213836
334,0.194969
335,0.150943
336,0.106918
337,0.106918
338,0.113208
339,0.081761
340,0.0471698
341,0.0125786
342,0.0
343,0.0188679
344,0.00628931