Folder: Polymer_electronics_multimodal_database/conjugated_ECPs/uv_vis_automated/Chem. Mater.,31, 17, 6841-6849, 2019/metadata

Note: conjugated_ECPs/README.md
The files are organized as following:

File: xyz111.txt
Wavelength (nm),Absorbance
330,0.254374
332,0.251499
334,0.249613
336,0.247726
338,0.24584
340,0.243953
342,0.242623
344,0.242531
346,0.242439
348,0.242347
350,0.242255
352,0.243974
354,0.247148
356,0.250323
358,0.253498
360,0.256673
362,0.26128
364,0.26625
366,0.271219
368,0.276188
370,0.281199
372,0.287134
374,0.29307
376,0.299006
378,0.304942
380,0.311403
382,0.318071
384,0.324738
386,0.331405
388,0.338596
390,0.345897
392,0.353197
394,0.360603
396,0.368589
398,0.376576
400,0.384562
402,0.393139
404,0.401775
406,0.41041
408,0.41929
410,0.428202
412,0.437169
414,0.446835
416,0.456501
418,0.466315
420,0.47629
422,0.486265
424,0.496582
426,0.506943
428,0.517395
430,0.528066
432,0.538737
434,0.549678
436,0.560735
438,0.571834
440,0.583289
442,0.594745
444,0.606371
446,0.618063
448,0.629629
450,0.641098
452,0.652746
454,0.66466
456,0.676494
458,0.688075
460,0.699664
462,0.711355
464,0.723047
466,0.734432
468,0.74579
470,0.75717
472,0.768558
474,0.77988
476,0.791092
478,0.802305
480,0.813093
482,0.823764
484,0.834319
486,0.844373
488,0.854427
490,0.864179
492,0.873436
494,0.882693
496,0.8918
498,0.899948
500,0.908096
502,0.916244
504,0.923569
506,0.930501
508,0.937433
510,0.944363
512,0.950023
514,0.955684
516,0.961344
518,0.967004
520,0.971446
522,0.975311
524,0.979176
526,0.983041
528,0.986906
530,0.98867
532,0.990258
534,0.991845
536,0.993433
538,0.994579
540,0.993521
542,0.992462
544,0.991404
546,0.990346
548,0.98817
550,0.98439
552,0.980611
554,0.976831
556,0.973051
558,0.968274
560,0.963149
562,0.958024
564,0.952899
566,0.947607
568,0.941034
570,0.934461
572,0.927889
574,0.920944
576,0.912712
578,0.90448
580,0.896248
582,0.886091
584,0.875897
586,0.864735
588,0.852041
590,0.839021
592,0.824879
594,0.81037
596,0.790466
598,0.772182
600,0.755218
602,0.738255
604,0.721292
606,0.704329
608,0.687649
610,0.671469
612,0.656524
614,0.642296
616,0.629238
618,0.616711
620,0.60418
622,0.591597
624,0.579015
626,0.566649
628,0.5543
630,0.54195
632,0.5296
634,0.517132
636,0.504104
638,0.491066
640,0.477371
642,0.463675
644,0.445436
646,0.426838
648,0.408831
650,0.393166
652,0.376932
654,0.359447
656,0.342012
658,0.324614
660,0.307364
662,0.290329
664,0.274627
666,0.260523
668,0.248575
670,0.236621
672,0.224407
674,0.212192
676,0.201424
678,0.191472
680,0.18152
682,0.173566
684,0.166024
686,0.158482
688,0.151302
690,0.146111
692,0.140919
694,0.135728
696,0.130536
698,0.12657
700,0.123372
702,0.120174
704,0.116976
706,0.113778
708,0.111509
710,0.109392
712,0.107276
714,0.105159
716,0.103118
718,0.101738
720,0.100357
722,0.098977
724,0.0975966
726,0.096328
728,0.0952697
730,0.0942114
732,0.0931531
734,0.0920949
736,0.0913085
738,0.0907103
740,0.0901122
742,0.089514
744,0.0889159
746,0.0883177
748,0.0877196
750,0.0871214
752,0.0865233
754,0.0859488
756,0.0856497
758,0.0853506
760,0.0850516
762,0.0847525
764,0.084446
766,0.0841239
768,0.0838018
770,0.0834797
772,0.0831576
774,0.0828094
776,0.0824413
778,0.0820732
780,0.0817051
782,0.0813371
784,0.0811557
786,0.0810177
788,0.0808796
789,0.0808106

File: xyz112.csv
Wavelength (nm),Absorbance
310,0.184062
312,0.185156
314,0.186249
316,0.18488
318,0.183251
320,0.181623
322,0.179995
324,0.178054
326,0.174774
328,0.171494
330,0.168214
332,0.164934
334,0.161665
336,0.158408
338,0.155152
340,0.151895
342,0.148638
344,0.147055
346,0.146008
348,0.144961
350,0.143914
352,0.142947
354,0.143831
356,0.144715
358,0.145599
360,0.146483
362,0.147912
364,0.150471
366,0.15303
368,0.155589
370,0.158147
372,0.161401
374,0.1651
376,0.168798
378,0.172497
380,0.176196
382,0.180622
384,0.185135
386,0.189648
388,0.194161
390,0.198769
392,0.203817
394,0.208865
396,0.213913
398,0.21896
400,0.224427
402,0.23038
404,0.236334
406,0.242287
408,0.248241
410,0.254683
412,0.261146
414,0.267608
416,0.27407
418,0.28112
420,0.288244
422,0.295369
424,0.302643
426,0.310383
428,0.318124
430,0.325864
432,0.333921
434,0.34205
436,0.35018
438,0.358635
440,0.367309
442,0.375983
444,0.384901
446,0.393985
448,0.403068
450,0.41262
452,0.42228
454,0.431949
456,0.441919
458,0.451889
460,0.462016
462,0.47265
464,0.483283
466,0.494021
468,0.504811
470,0.515651
472,0.526988
474,0.538325
476,0.549728
478,0.561192
480,0.572672
482,0.584238
484,0.595804
486,0.607535
488,0.619306
490,0.63125
492,0.64341
494,0.65557
496,0.667729
498,0.679889
500,0.692049
502,0.704205
504,0.716139
506,0.728074
508,0.739865
510,0.751636
512,0.763144
514,0.774403
516,0.785662
518,0.796553
520,0.807421
522,0.818173
524,0.828728
526,0.839284
528,0.849465
530,0.859551
532,0.869481
534,0.878874
536,0.888267
538,0.897268
540,0.905765
542,0.914263
544,0.922394
546,0.929243
548,0.936092
550,0.942941
552,0.94905
554,0.953865
556,0.958681
558,0.963496
560,0.968312
562,0.971842
564,0.975169
566,0.978496
568,0.981822
570,0.985032
572,0.987568
574,0.990104
576,0.992639
578,0.995175
580,0.996828
582,0.997317
584,0.997805
586,0.998294
588,0.998782
590,0.996528
592,0.993182
594,0.989836
596,0.98649
598,0.982178
600,0.974309
602,0.966439
604,0.95857
606,0.948552
608,0.937941
610,0.926766
612,0.914832
614,0.902934
616,0.891129
618,0.879324
620,0.86853
622,0.857818
624,0.847556
626,0.838122
628,0.828688
630,0.819976
632,0.811819
634,0.803662
636,0.795343
638,0.786899
640,0.778455
642,0.769104
644,0.759052
646,0.748999
648,0.735582
650,0.721975
652,0.705966
654,0.688885
656,0.669785
658,0.64541
660,0.621522
662,0.597321
664,0.571297
666,0.547194
668,0.522394
670,0.497334
672,0.472886
674,0.449828
676,0.426668
678,0.407255
680,0.388515
682,0.369281
684,0.351583
686,0.334458
688,0.31929
690,0.304374
692,0.291201
694,0.278028
696,0.267711
698,0.257444
700,0.24795
702,0.239566
704,0.231182
706,0.223198
708,0.216865
710,0.210532
712,0.204199
714,0.198096
716,0.193653
718,0.18921
720,0.184767
722,0.180324
724,0.176391
726,0.173205
728,0.170018
730,0.166831
732,0.163644
734,0.161035
736,0.158686
738,0.156336
740,0.153987
742,0.151637
744,0.149854
746,0.148086
748,0.146318
749,0.145434

File: xyz121.txt
Wavelength (nm),Absorbance
330,0.203846
332,0.200831
334,0.197815
336,0.195504
338,0.193463
340,0.191422
342,0.189381
344,0.18734
346,0.188291
348,0.189311
350,0.190332
352,0.191352
354,0.19276
356,0.19545
358,0.198141
360,0.200831
362,0.203522
364,0.206632
366,0.210188
368,0.213743
370,0.217298
372,0.221913
374,0.228204
376,0.234495
378,0.240151
380,0.244516
382,0.248882
384,0.253247
386,0.257613
388,0.263097
390,0.26871
392,0.275782
394,0.284763
396,0.293744
398,0.298851
400,0.30384
402,0.308829
404,0.313819
406,0.31952
408,0.325834
410,0.332149
412,0.338463
414,0.347036
416,0.357139
418,0.367018
420,0.375438
422,0.383857
424,0.392608
426,0.402899
428,0.413189
430,0.423189
432,0.43217
434,0.44115
436,0.450131
438,0.459112
440,0.469419
442,0.48289
444,0.496361
446,0.5103
448,0.524332
450,0.536912
452,0.549261
454,0.560265
456,0.569246
458,0.578227
460,0.59141
462,0.604881
464,0.61729
466,0.628516
468,0.639742
470,0.650968
472,0.662304
474,0.676336
476,0.690175
478,0.701401
480,0.712903
482,0.726935
484,0.740197
486,0.748216
488,0.756234
490,0.764253
492,0.782083
494,0.795623
496,0.805246
498,0.814868
500,0.826959
502,0.843429
504,0.850912
506,0.858396
508,0.867023
510,0.878249
512,0.889624
514,0.901295
516,0.912213
518,0.920083
520,0.927954
522,0.935824
524,0.942878
526,0.949832
528,0.956785
530,0.963729
532,0.969444
534,0.975159
536,0.980288
538,0.98508
540,0.989872
542,0.994664
544,0.999078
546,0.999078
548,0.999078
550,0.999078
552,0.999078
554,0.999078
556,0.999078
558,0.996613
560,0.99296
562,0.989308
564,0.985655
566,0.981698
568,0.977476
570,0.973255
572,0.969034
574,0.964813
576,0.958967
578,0.952689
580,0.946411
582,0.940134
584,0.931982
586,0.922995
588,0.914007
590,0.903265
592,0.891665
594,0.879085
596,0.864211
598,0.848885
600,0.832748
602,0.815392
604,0.797325
606,0.778918
608,0.759999
610,0.740435
612,0.721592
614,0.702689
616,0.683746
618,0.664889
620,0.646546
622,0.629106
624,0.612621
626,0.596457
628,0.581373
630,0.566359
632,0.551453
634,0.536588
636,0.52177
638,0.507148
640,0.492991
642,0.478504
644,0.463419
646,0.448003
648,0.432392
650,0.415829
652,0.39926
654,0.383123
656,0.366827
658,0.350339
660,0.333596
662,0.316759
664,0.300797
666,0.285119
668,0.270182
670,0.255586
672,0.241666
674,0.228089
676,0.216097
678,0.204106
680,0.1936
682,0.183454
684,0.173309
686,0.165591
688,0.157874
690,0.150156
692,0.143595
694,0.137982
696,0.132369
698,0.126756
700,0.121607
702,0.117966
704,0.114324
706,0.110683
708,0.107041
710,0.104013
712,0.101624
714,0.0992354
716,0.0968465
718,0.0944575
720,0.0925346
722,0.0907719
724,0.0890092
726,0.0872464
728,0.0854837
730,0.0844391
732,0.0833954
734,0.0823516
736,0.0813079
738,0.080364
740,0.0797146
742,0.0790652
744,0.0784158
746,0.0777663
748,0.0771875
750,0.0766773
752,0.076167
754,0.0756568
756,0.0751465
758,0.0747069
760,0.0742894
762,0.073872
764,0.0734545
766,0.0730385
768,0.0727138
770,0.0723891
772,0.0720644
774,0.0717397
776,0.0713772
778,0.0709134
780,0.0704495
782,0.0699856
784,0.0695217
786,0.0692651
788,0.0691955
789,0.0691607

File: xyz122.csv
Wavelength (nm),Absorbance
330,0.223306
332,0.223444
334,0.223582
336,0.222252
338,0.22048
340,0.218709
342,0.216937
344,0.215164
346,0.213255
348,0.211345
350,0.209436
352,0.207526
354,0.205836
356,0.204777
358,0.203719
360,0.202661
362,0.201603
364,0.201905
366,0.203562
368,0.205218
370,0.206874
372,0.208531
374,0.211233
376,0.214293
378,0.217353
380,0.220413
382,0.223473
384,0.227147
386,0.230828
388,0.234509
390,0.23819
392,0.241995
394,0.246205
396,0.250415
398,0.254625
400,0.258835
402,0.263298
404,0.268037
406,0.272776
408,0.277516
410,0.282255
412,0.287476
414,0.292882
416,0.298289
418,0.303695
420,0.309101
422,0.314992
424,0.3209
426,0.326808
428,0.332715
430,0.339133
432,0.345835
434,0.352536
436,0.359238
438,0.366376
440,0.373658
442,0.38094
444,0.388258
446,0.396
448,0.403742
450,0.411484
452,0.419697
454,0.428201
456,0.436704
458,0.445343
460,0.454205
462,0.463067
464,0.472128
466,0.481559
468,0.490989
470,0.500585
472,0.510526
474,0.520468
476,0.530665
478,0.541104
480,0.551543
482,0.562194
484,0.572865
486,0.583661
488,0.594719
490,0.605777
492,0.617026
494,0.628346
496,0.639798
498,0.651489
500,0.663181
502,0.674872
504,0.68657
506,0.698485
508,0.710399
510,0.722217
512,0.73402
514,0.745721
516,0.757378
518,0.769058
520,0.780784
522,0.792509
524,0.803754
526,0.814973
528,0.825968
530,0.836793
532,0.847619
534,0.85784
536,0.868047
538,0.878106
540,0.887927
542,0.897747
544,0.907317
546,0.916821
548,0.926324
550,0.934661
552,0.942973
554,0.951284
556,0.957875
558,0.963849
560,0.969822
562,0.975796
564,0.979982
566,0.983111
568,0.986239
570,0.989368
572,0.992497
574,0.993116
576,0.993369
578,0.993622
580,0.993875
582,0.993954
584,0.992711
586,0.991469
588,0.990227
590,0.988985
592,0.986937
594,0.983463
596,0.979989
598,0.976515
600,0.973041
602,0.967402
604,0.960351
606,0.9533
608,0.946249
610,0.935949
612,0.925404
614,0.913338
616,0.900038
618,0.885413
620,0.869929
622,0.853223
624,0.836372
626,0.81967
628,0.802895
630,0.786019
632,0.769262
634,0.75256
636,0.736692
638,0.72106
640,0.706098
642,0.691223
644,0.676434
646,0.661914
648,0.647473
650,0.633033
652,0.618375
654,0.603238
656,0.587594
658,0.571588
660,0.555433
662,0.53908
664,0.521516
666,0.503426
668,0.484999
670,0.466556
672,0.447876
674,0.428788
676,0.41021
678,0.392032
680,0.37446
682,0.357208
684,0.340157
686,0.324945
688,0.309974
690,0.296408
692,0.282935
694,0.271041
696,0.259602
698,0.248918
700,0.239374
702,0.229829
704,0.221568
706,0.214205
708,0.206843
710,0.199734
712,0.194341
714,0.188948
716,0.183555
718,0.178162
720,0.174111
722,0.170384
724,0.166657
726,0.16293
728,0.15926
730,0.156684
732,0.154107
734,0.15153
736,0.148954
738,0.146587
740,0.144723
742,0.14286
744,0.140996
746,0.139133
748,0.137653
750,0.136503
752,0.135352
754,0.134202
756,0.133052
758,0.132153
760,0.131325
762,0.130497
764,0.129669
766,0.128843
768,0.128107
770,0.127371
772,0.126634
774,0.125898
776,0.125212
778,0.12466
780,0.124107
782,0.123555
784,0.123003
786,0.122463
788,0.121934
789,0.121669

File: xyz131.csv
Wavelength (nm),Absorbance
330,0.227549
332,0.224047
334,0.220619
336,0.217604
338,0.214589
340,0.211574
342,0.208559
344,0.206453
346,0.205665
348,0.204876
350,0.204087
352,0.203299
354,0.204402
356,0.206466
358,0.20853
360,0.210595
362,0.212659
364,0.215766
366,0.218967
368,0.222167
370,0.225368
372,0.228709
374,0.232721
376,0.236734
378,0.240746
380,0.244759
382,0.249635
384,0.255674
386,0.261712
388,0.26775
390,0.273789
392,0.279827
394,0.285199
396,0.290528
398,0.295857
400,0.301745
402,0.308596
404,0.315447
406,0.322298
408,0.329755
410,0.337473
412,0.345191
414,0.353073
416,0.361452
418,0.369832
420,0.378219
422,0.387211
424,0.396203
426,0.405195
428,0.414517
430,0.423841
432,0.433318
434,0.443452
436,0.453587
438,0.463908
440,0.474355
442,0.484808
444,0.495878
446,0.506948
448,0.518293
450,0.530012
452,0.541617
454,0.551098
456,0.560579
458,0.571162
460,0.583304
462,0.595478
464,0.608107
466,0.620736
468,0.63224
470,0.643663
472,0.656624
474,0.670032
476,0.682439
478,0.694288
480,0.706057
482,0.717513
484,0.728969
486,0.740777
488,0.75285
490,0.765168
492,0.778105
494,0.791042
496,0.804041
498,0.817039
500,0.827561
502,0.838008
504,0.848132
506,0.857733
508,0.867335
510,0.876346
512,0.884926
514,0.893506
516,0.901866
518,0.909803
520,0.91774
522,0.925677
524,0.932898
526,0.940031
528,0.947164
530,0.954287
532,0.960118
534,0.96595
536,0.971781
538,0.977613
540,0.982187
542,0.985388
544,0.988588
546,0.991789
548,0.99499
550,0.995897
552,0.995967
554,0.996036
556,0.996106
558,0.996175
560,0.994665
562,0.993135
564,0.991604
566,0.990073
568,0.988128
570,0.984881
572,0.981634
574,0.978387
576,0.975139
578,0.97101
580,0.965984
582,0.960958
584,0.955932
586,0.950357
588,0.942312
590,0.934267
592,0.926221
594,0.915601
596,0.904835
598,0.892646
600,0.8794
602,0.864117
604,0.845979
606,0.82864
608,0.811741
610,0.795731
612,0.779344
614,0.762506
616,0.745539
618,0.728529
620,0.712655
622,0.697061
624,0.682195
626,0.667534
628,0.65297
630,0.638672
632,0.625592
634,0.612513
636,0.599918
638,0.587416
640,0.574501
642,0.561283
644,0.547566
646,0.532916
648,0.51824
650,0.503525
652,0.488261
654,0.472152
656,0.457251
658,0.443089
660,0.428383
662,0.413251
664,0.398432
666,0.383882
668,0.372189
670,0.360495
672,0.348942
674,0.337546
676,0.326252
678,0.315884
680,0.305516
682,0.295887
684,0.286966
686,0.278046
688,0.270083
690,0.263113
692,0.256144
694,0.249175
696,0.243409
698,0.238418
700,0.233427
702,0.228436
704,0.223533
706,0.219659
708,0.215786
710,0.211912
712,0.208039
714,0.204521
716,0.201714
718,0.198908
720,0.196101
722,0.193295
724,0.190815
726,0.188566
728,0.186316
730,0.184066
732,0.181816
734,0.179879
736,0.178
738,0.176121
740,0.174243
742,0.172386
744,0.170739
746,0.169093
748,0.167446
750,0.165799
752,0.164226
754,0.162788
756,0.16135
758,0.159912
760,0.158474
762,0.157078
764,0.155709
766,0.154341
768,0.152972
770,0.151604
772,0.150335
774,0.149083
776,0.14783
778,0.146578
780,0.145336
782,0.144176
784,0.143016
786,0.141857
788,0.140697
789,0.140117

File: xyz211.csv
Wavelength (nm),Absorbance
330,0.3865
332,0.385013
334,0.386899
336,0.388786
338,0.390672
340,0.392559
342,0.395457
344,0.400609
346,0.40576
348,0.410911
350,0.416063
352,0.424006
354,0.431987
356,0.439968
358,0.448887
360,0.458645
362,0.468403
364,0.479186
366,0.490371
368,0.501766
370,0.513569
372,0.52559
374,0.538618
376,0.551651
378,0.565013
380,0.578375
382,0.592212
384,0.606131
386,0.620285
388,0.634544
390,0.649329
392,0.664294
394,0.679431
396,0.694517
398,0.709479
400,0.724539
402,0.739676
404,0.754379
406,0.769011
408,0.7838
410,0.798426
412,0.812778
414,0.826898
416,0.840705
418,0.854278
420,0.867195
422,0.880006
424,0.891883
426,0.90376
428,0.914429
430,0.924636
432,0.934645
434,0.943328
436,0.95201
438,0.960403
440,0.966277
442,0.972151
444,0.978025
446,0.983898
448,0.986237
450,0.988561
452,0.990884
454,0.993208
456,0.994582
458,0.992949
460,0.991316
462,0.989682
464,0.988049
466,0.984789
468,0.979795
470,0.974801
472,0.969807
474,0.964375
476,0.956654
478,0.948932
480,0.941211
482,0.932003
484,0.922163
486,0.912323
488,0.90199
490,0.891598
492,0.878632
494,0.864714
496,0.851902
498,0.839932
500,0.827095
502,0.812991
504,0.798986
506,0.785099
508,0.771391
510,0.757854
512,0.743064
514,0.727327
516,0.712243
518,0.698108
520,0.683944
522,0.669747
524,0.655636
526,0.641606
528,0.627814
530,0.614452
532,0.601111
534,0.587861
536,0.574652
538,0.562738
540,0.550824
542,0.539484
544,0.528231
546,0.517189
548,0.506363
550,0.495537
552,0.485337
554,0.475207
556,0.465273
558,0.45579
560,0.446307
562,0.437203
564,0.428487
566,0.419771
568,0.411311
570,0.403612
572,0.395913
574,0.388214
576,0.381245
578,0.374468
580,0.367691
582,0.361034
584,0.355286
586,0.349539
588,0.343791
590,0.338044
592,0.332648
594,0.327343
596,0.322038
598,0.316733
600,0.311193
602,0.304957
604,0.298722
606,0.292486
608,0.286251
610,0.27944
612,0.272587
614,0.265733
616,0.25888
618,0.25184
620,0.244761
622,0.237681
624,0.230601
626,0.223942
628,0.217313
630,0.210684
632,0.204055
634,0.198667
636,0.193543
638,0.188419
640,0.183295
642,0.178549
644,0.174753
646,0.170957
648,0.167161
650,0.163365
652,0.160299
654,0.157884
656,0.155468
658,0.153052
660,0.150637
662,0.148879
664,0.147315
666,0.14575
668,0.144186
670,0.142632
672,0.141689
674,0.140746
676,0.139802
678,0.138859
680,0.137957
682,0.137173
684,0.136388
686,0.135604
688,0.134819
690,0.134454
692,0.134117
694,0.133779
696,0.133442
698,0.133104
700,0.132767
702,0.132562
704,0.132516
706,0.13247
708,0.132423
710,0.132377
712,0.132364
714,0.132364
716,0.132364
718,0.132364
720,0.132364
722,0.13219
724,0.132006
726,0.131822
728,0.131638
730,0.131522
732,0.131706
734,0.13189
736,0.132074
738,0.132258
740,0.132285
742,0.132102
744,0.131919
746,0.131736
748,0.13169
750,0.131937
752,0.132183
754,0.132429
756,0.132675
758,0.132921
760,0.133167
762,0.133413
764,0.133659
766,0.133905
768,0.133977
770,0.133931
772,0.133885
774,0.133839
776,0.133793
778,0.133998
780,0.134251
782,0.134504
784,0.134757
786,0.135001
788,0.135138
789,0.135207

File: xyz212.csv
Wavelength (nm),Absorbance
310,0.302281
312,0.30184
314,0.301197
316,0.298112
318,0.295027
320,0.291942
322,0.288858
324,0.285542
326,0.281762
328,0.277981
330,0.274201
332,0.27042
334,0.267481
336,0.265139
338,0.262796
340,0.260454
342,0.258111
344,0.258048
346,0.258419
348,0.25879
350,0.259161
352,0.259872
354,0.263838
356,0.267805
358,0.271771
360,0.275737
362,0.280565
364,0.287003
366,0.293441
368,0.299879
370,0.306365
372,0.3142
374,0.322035
376,0.329869
378,0.338112
380,0.346646
382,0.35518
384,0.364134
386,0.373412
388,0.382691
390,0.392379
392,0.402413
394,0.412446
396,0.422958
398,0.433638
400,0.444436
402,0.455895
404,0.467355
406,0.478913
408,0.490547
410,0.502317
412,0.514665
414,0.527028
416,0.539825
418,0.552623
420,0.565715
422,0.578849
424,0.592145
426,0.605504
428,0.618925
430,0.632396
432,0.645777
434,0.659023
436,0.672353
438,0.685936
440,0.699519
442,0.713102
444,0.726686
446,0.739955
448,0.753201
450,0.765925
452,0.778498
454,0.790931
456,0.80328
458,0.815448
460,0.827063
462,0.838679
464,0.849833
466,0.860747
468,0.871612
470,0.881824
472,0.892037
474,0.901846
476,0.911222
478,0.920597
480,0.928945
482,0.936802
484,0.944659
486,0.952025
488,0.957709
490,0.963393
492,0.969077
494,0.97476
496,0.978715
498,0.982501
500,0.986287
502,0.990074
504,0.99386
506,0.994619
508,0.995335
510,0.996052
512,0.996768
514,0.997358
516,0.99658
518,0.995802
520,0.995025
522,0.993956
524,0.990443
526,0.98693
528,0.983416
530,0.979903
532,0.97639
534,0.972877
536,0.967756
538,0.961713
540,0.955669
542,0.949625
544,0.942604
546,0.934739
548,0.926875
550,0.918722
552,0.909902
554,0.901082
556,0.892165
558,0.883001
560,0.873837
562,0.86451
564,0.854724
566,0.844937
568,0.835098
570,0.825198
572,0.815297
574,0.804349
576,0.793242
578,0.781408
580,0.768836
582,0.756138
584,0.743197
586,0.729637
588,0.715137
590,0.700352
592,0.685228
594,0.669854
596,0.654243
598,0.638909
600,0.623693
602,0.609135
604,0.59486
606,0.581139
608,0.567902
610,0.555401
612,0.542937
614,0.532023
616,0.521109
618,0.510672
620,0.500855
622,0.491037
624,0.481343
626,0.471721
628,0.462099
630,0.451779
632,0.441016
634,0.430253
636,0.418416
638,0.406323
640,0.393632
642,0.380161
644,0.366353
646,0.351666
648,0.33655
650,0.320589
652,0.304841
654,0.28923
656,0.274085
658,0.259043
660,0.244232
662,0.229833
664,0.216924
666,0.204111
668,0.1928
670,0.181489
672,0.171764
674,0.16276
676,0.153756
678,0.146495
680,0.140099
682,0.133704
684,0.127309
686,0.122099
688,0.117785
690,0.113471
692,0.109157
694,0.104843
696,0.101847
698,0.0991336
700,0.0964199
702,0.0937062
704,0.091067
706,0.0893042
708,0.0875415
710,0.0857788
712,0.0840161
714,0.0824308
716,0.0812016
718,0.0799723
720,0.078743
722,0.0775138
724,0.0766658
726,0.076086
728,0.0755061
730,0.0749263
732,0.0743465
734,0.0737861
736,0.0732295
738,0.0726728
740,0.0721162
742,0.0715751
744,0.0711808
746,0.0707865
748,0.0703922
749,0.0701951

File: xyz221.txt
Wavelength (nm),Absorbance
320,0.322
322,0.319255
324,0.31651
326,0.313765
328,0.31039
330,0.306948
332,0.303505
334,0.300062
336,0.296767
338,0.294115
340,0.291463
342,0.288811
344,0.286159
346,0.284559
348,0.28414
350,0.283722
352,0.283303
354,0.282884
356,0.286726
358,0.291949
360,0.297173
362,0.302396
364,0.30911
366,0.315996
368,0.322882
370,0.330191
372,0.337982
374,0.345772
376,0.353609
378,0.362641
380,0.371673
382,0.38091
384,0.390762
386,0.400614
388,0.410995
390,0.421629
392,0.432312
394,0.443415
396,0.454517
398,0.465885
400,0.477485
402,0.489184
404,0.501343
406,0.513518
408,0.526128
410,0.538738
412,0.551548
414,0.564383
416,0.577302
418,0.59025
420,0.603333
422,0.616506
424,0.629782
426,0.64318
428,0.656614
430,0.670125
432,0.68361
434,0.69697
436,0.710327
438,0.723537
440,0.736748
442,0.749528
444,0.76225
446,0.775056
448,0.787891
450,0.800324
452,0.812483
454,0.824337
456,0.835822
458,0.847168
460,0.858205
462,0.869242
464,0.879077
466,0.888851
468,0.89839
470,0.907546
472,0.916702
474,0.925082
476,0.932929
478,0.940776
480,0.948379
482,0.954728
484,0.961077
486,0.967425
488,0.973774
490,0.978427
492,0.982838
494,0.987248
496,0.991659
498,0.995412
500,0.99754
502,0.999668
504,1.0018
506,1.00299
508,1.00243
510,1.00187
512,1.0013
514,1.00042
516,0.996669
518,0.992916
520,0.98864
522,0.983938
524,0.979236
526,0.974534
528,0.969832
530,0.964944
532,0.957985
534,0.951027
536,0.944068
538,0.936586
540,0.92729
542,0.917994
544,0.908697
546,0.899401
548,0.889082
550,0.878369
552,0.867657
554,0.856034
556,0.844349
558,0.832194
560,0.819697
562,0.806955
564,0.793894
566,0.780801
568,0.767628
570,0.754329
572,0.740292
574,0.726256
576,0.712145
578,0.698033
580,0.682771
582,0.667322
584,0.651679
586,0.635946
588,0.619937
590,0.603664
592,0.587128
594,0.571006
596,0.554972
598,0.538611
600,0.522501
602,0.506844
604,0.49145
606,0.476204
608,0.461938
610,0.447749
612,0.434349
614,0.420951
616,0.407937
618,0.394989
620,0.382361
622,0.369864
624,0.35771
626,0.34582
628,0.333873
630,0.32171
632,0.309547
634,0.297291
636,0.285019
638,0.272944
640,0.260952
642,0.249078
644,0.237427
646,0.225775
648,0.214535
650,0.203299
652,0.192867
654,0.1829
656,0.172933
658,0.164624
660,0.156615
662,0.148607
664,0.1415
666,0.135658
668,0.129815
670,0.123972
672,0.118398
674,0.11463
676,0.110861
678,0.107093
680,0.103324
682,0.100171
684,0.0978916
686,0.0956118
688,0.0933321
690,0.0910524
692,0.0894381
694,0.0881122
696,0.0867862
698,0.0854603
700,0.0841343
702,0.0833108
704,0.0824966
706,0.0816824
708,0.0808683
710,0.0801654
712,0.0797699
714,0.0793745
716,0.078979
718,0.0785836
720,0.0782393
722,0.0779369
724,0.0776345
726,0.077332
728,0.0770296
730,0.0769601
732,0.0769368
734,0.0769135
736,0.0768903
738,0.0768917
740,0.0770778
742,0.0772639
744,0.07745
746,0.0776361
748,0.0777791
749,0.0778184