Folder: Polymer_electronics_multimodal_database/conjugated_ECPs/uv_vis_automated/Chem. Mater., 24, 255-268, 2012/metadata

Note: conjugated_ECPs/README.md
The files are organized as following:

File: P1.csv
wavelength,absor
360,0.266853
362,0.270712
364,0.276084
366,0.284158
368,0.293916
370,0.303674
372,0.313346
374,0.320678
376,0.32801
378,0.335136
380,0.340667
382,0.346197
384,0.351727
386,0.381579
388,0.390979
390,0.403478
392,0.424788
394,0.452355
396,0.462204
398,0.470596
400,0.484825
402,0.511791
404,0.51621
406,0.51755
408,0.537615
410,0.55768
412,0.574854
414,0.588733
416,0.602634
418,0.611349
420,0.618869
422,0.62639
424,0.63009
426,0.633313
428,0.636536
430,0.631201
432,0.625555
434,0.619909
436,0.614262
438,0.608616
440,0.609573
442,0.612193
444,0.604866
446,0.596534
448,0.584
450,0.560471
452,0.548094
454,0.540037
456,0.507225
458,0.491942
460,0.472832
462,0.435492
464,0.416691
466,0.401634
468,0.387162
470,0.371047
472,0.359832
474,0.349818
476,0.343689
478,0.337561
480,0.331432
482,0.327973
484,0.328612
486,0.331296
488,0.336256
490,0.341216
492,0.345707
494,0.350183
496,0.35466
498,0.361887
500,0.372319
502,0.38275
504,0.393417
506,0.404161
508,0.414904
510,0.425648
512,0.436182
514,0.446652
516,0.457123
518,0.470496
520,0.484345
522,0.497686
524,0.508143
526,0.518723
528,0.529466
530,0.540327
532,0.552414
534,0.5645
536,0.583623
538,0.60511
540,0.621257
542,0.635157
544,0.650346
546,0.666461
548,0.682576
550,0.702618
552,0.724105
554,0.737126
556,0.737005
558,0.743024
560,0.753768
562,0.765028
564,0.778347
566,0.791666
568,0.811058
570,0.83822
572,0.856126
574,0.870115
576,0.879324
578,0.888533
580,0.897741
582,0.905821
584,0.911864
586,0.917907
588,0.92395
590,0.929993
592,0.946513
594,0.968
596,0.974622
598,0.980022
600,0.985421
602,0.98811
604,0.98961
606,0.9898
608,0.989207
610,0.988615
612,0.988022
614,0.98743
616,0.986837
618,0.986245
620,0.985652
622,0.985848
624,0.97947
626,0.973093
628,0.966716
630,0.960013
632,0.953298
634,0.942942
636,0.930408
638,0.914808
640,0.898754
642,0.891418
644,0.89188
646,0.867068
648,0.840335
650,0.818848
652,0.790482
654,0.75756
656,0.741445
658,0.698959
660,0.698922
662,0.671047
664,0.644188
666,0.607613
668,0.543791
670,0.522304
672,0.494785
674,0.452188
676,0.437864
678,0.418482
680,0.38911
682,0.321304
684,0.302503
686,0.31841
688,0.27123
690,0.201099
692,0.186963
694,0.175686
696,0.164942
698,0.151717
700,0.135946
702,0.120482
704,0.107225
706,0.0982723
708,0.0865131
710,0.0739267
712,0.0596021
714,0.0481049
716,0.0440673
718,0.0400297
720,0.035992
722,0.0317934
724,0.0273576
726,0.0236579
728,0.0203882
730,0.0171184
732,0.014421
734,0.0136126
736,0.0128042
738,0.0119958
740,0.0107554
742,0.00889154
744,0.00702772
746,0.00516389
748,0.0035287
750,0.00383946
752,0.00415023
754,0.00446099
756,0.00477175
758,0.00508251
760,0.00539327
762,0.00563931
764,0.00584279
766,0.0058925
768,0.00591071
770,0.00592892
772,0.00594713
774,0.00596534
776,0.00598354
778,0.00600175
780,0.00601996
782,0.00603817
784,0.00605638
786,0.00607459
788,0.0060928
790,0.00611101
792,0.00612922
794,0.00614743
796,0.00616564
798,0.00618385
799,0.00619295