Folder: Polymer_electronics_multimodal_database/conjugated_ECPs/uv_vis_automated/Macromolecules, 54, 4, 1677–1692, 2021/metadata

Note: conjugated_ECPs/README.md
The files are organized as following:

File: DAT-co-(DEP).txt
Wavelength (nm),Absorbance
360,0.582713
361,0.592051
362,0.600348
363,0.608644
364,0.616868
365,0.624946
366,0.633024
367,0.642532
368,0.652343
369,0.66207
370,0.671797
371,0.680731
372,0.689647
373,0.699203
374,0.708941
375,0.719093
376,0.729293
377,0.738925
378,0.748505
379,0.758409
380,0.768345
381,0.778613
382,0.788945
383,0.799529
384,0.80974
385,0.818357
386,0.826975
387,0.83589
388,0.844876
389,0.853634
390,0.862098
391,0.870558
392,0.878935
393,0.887313
394,0.895167
395,0.902776
396,0.910381
397,0.91727
398,0.92416
399,0.931056
400,0.93814
401,0.945223
402,0.951578
403,0.957225
404,0.962873
405,0.96852
406,0.972547
407,0.97615
408,0.979754
409,0.983358
410,0.986962
411,0.989591
412,0.991
413,0.992409
414,0.993817
415,0.995226
416,0.996635
417,0.998043
418,0.99699
419,0.995683
420,0.994375
421,0.993067
422,0.991759
423,0.990451
424,0.98752
425,0.983972
426,0.980424
427,0.976877
428,0.971621
429,0.965946
430,0.96027
431,0.95394
432,0.945494
433,0.937948
434,0.931874
435,0.9258
436,0.918331
437,0.909708
438,0.90107
439,0.892145
440,0.88322
441,0.871728
442,0.860376
443,0.849558
444,0.838888
445,0.828335
446,0.816774
447,0.804191
448,0.791577
449,0.778948
450,0.76728
451,0.755497
452,0.742096
453,0.728637
454,0.715075
455,0.702027
456,0.689575
457,0.672991
458,0.657717
459,0.644951
460,0.632013
461,0.613534
462,0.598466
463,0.587607
464,0.57265
465,0.556568
466,0.540415
467,0.527748
468,0.514517
469,0.498421
470,0.482134
471,0.468669
472,0.45611
473,0.439387
474,0.423188
475,0.411122
476,0.401751
477,0.389272
478,0.373696
479,0.359666
480,0.346812
481,0.334465
482,0.322542
483,0.310677
484,0.298935
485,0.28755
486,0.277133
487,0.266689
488,0.256072
489,0.245592
490,0.235616
491,0.225885
492,0.216395
493,0.207658
494,0.199331
495,0.191277
496,0.183675
497,0.176073
498,0.168197
499,0.160186
500,0.152175
501,0.145414
502,0.13866
503,0.131913
504,0.12551
505,0.119107
506,0.112755
507,0.107354
508,0.101952
509,0.0965503
510,0.0922486
511,0.0881526
512,0.0840567
513,0.0799607
514,0.0758721
515,0.0720358
516,0.0681995
517,0.0643632
518,0.060527
519,0.0570898
520,0.0539529
521,0.0508161
522,0.0476792
523,0.0445423
524,0.0414054
525,0.0391627
526,0.0369931
527,0.0348235
528,0.0326539
529,0.0304843
530,0.0283147
531,0.0263821
532,0.0248253
533,0.0232685
534,0.0217116
535,0.0201548
536,0.018598
537,0.0170412
538,0.0157108
539,0.0144208

File: DAT-co-(DiBP).txt
Wavelength (nm),Absorbance
360,0.504424
361,0.511998
362,0.519415
363,0.527275
364,0.536228
365,0.545181
366,0.553747
367,0.562294
368,0.570982
369,0.579794
370,0.58868
371,0.597969
372,0.607258
373,0.616304
374,0.625282
375,0.634843
376,0.645135
377,0.654571
378,0.663377
379,0.672485
380,0.681851
381,0.691558
382,0.701604
383,0.711563
384,0.721479
385,0.729964
386,0.738195
387,0.747785
388,0.758455
389,0.76788
390,0.776745
391,0.78579
392,0.795166
393,0.804542
394,0.813536
395,0.822521
396,0.831298
397,0.839936
398,0.848603
399,0.857371
400,0.866139
401,0.87505
402,0.883988
403,0.893164
404,0.902521
405,0.910396
406,0.917588
407,0.924772
408,0.931162
409,0.937551
410,0.943907
411,0.94943
412,0.954952
413,0.960474
414,0.965196
415,0.969677
416,0.974158
417,0.978639
418,0.98202
419,0.984695
420,0.98737
421,0.990045
422,0.99272
423,0.995395
424,0.995705
425,0.995923
426,0.996141
427,0.996359
428,0.996578
429,0.996796
430,0.995871
431,0.993401
432,0.99093
433,0.988459
434,0.985989
435,0.983518
436,0.979348
437,0.974695
438,0.970042
439,0.965388
440,0.959197
441,0.952863
442,0.946529
443,0.938994
444,0.931388
445,0.923102
446,0.913978
447,0.904758
448,0.895369
449,0.885932
450,0.876093
451,0.866226
452,0.855423
453,0.844582
454,0.833624
455,0.822488
456,0.811145
457,0.799119
458,0.786773
459,0.774219
460,0.761597
461,0.748633
462,0.735684
463,0.722766
464,0.709223
465,0.695334
466,0.681035
467,0.667692
468,0.654536
469,0.64106
470,0.627334
471,0.611216
472,0.596547
473,0.58355
474,0.568039
475,0.552937
476,0.538698
477,0.524762
478,0.511288
479,0.497814
480,0.481146
481,0.468756
482,0.456248
483,0.439719
484,0.427731
485,0.41535
486,0.39896
487,0.386446
488,0.374031
489,0.361376
490,0.348843
491,0.336496
492,0.324434
493,0.31255
494,0.300602
495,0.288681
496,0.277569
497,0.266661
498,0.256321
499,0.246231
500,0.236412
501,0.226019
502,0.214907
503,0.205147
504,0.196384
505,0.187546
506,0.178474
507,0.169402
508,0.161818
509,0.154471
510,0.147534
511,0.141249
512,0.134963
513,0.128631
514,0.122131
515,0.11563
516,0.109333
517,0.103659
518,0.0979849
519,0.0923111
520,0.0874279
521,0.0825638
522,0.0776998
523,0.0729383
524,0.0689807
525,0.0650232
526,0.0610656
527,0.0571081
528,0.0534802
529,0.0504427
530,0.0474051
531,0.0443676
532,0.04133
533,0.0382924
534,0.0356293
535,0.0334942
536,0.031359
537,0.0292239
538,0.0270887
539,0.0249535
540,0.0228184
541,0.0212773
542,0.0198195
543,0.0183616
544,0.0169037
545,0.0154458
546,0.013988
547,0.0127249
548,0.011841
549,0.0109571
550,0.0100732
551,0.00918925
552,0.00830534
553,0.00742143
554,0.00685039
555,0.00635678
556,0.00586317
557,0.00536956
558,0.00487595
559,0.00438234
560,0.00398262
561,0.00384487
562,0.00370712
563,0.00356937
564,0.00343161
565,0.00329386
566,0.00315611
567,0.00316839
568,0.00323727
569,0.00330614
570,0.00337502
571,0.00344389
572,0.00351277
573,0.00354922
574,0.0034459
575,0.00334259
576,0.00323928
577,0.00313596
578,0.00303265
579,0.00292933
580,0.0028783
581,0.00285534
582,0.00283238
583,0.00280942
584,0.00278646
585,0.0027635
586,0.00274313
587,0.00274313
588,0.00274313
589,0.00274313
590,0.00274313
591,0.00274313
592,0.00274313
593,0.00274313
594,0.00274313
595,0.00274313
596,0.00274313
597,0.00274313
598,0.00274313
599,0.00274313
600,0.00274313
601,0.00274313
602,0.00274313
603,0.00274313
604,0.00274313
605,0.00274313
606,0.00274313
607,0.00274313
608,0.00274313
609,0.00274313
610,0.00274313
611,0.00274313
612,0.00274313
613,0.00280937
614,0.00287825
615,0.00294712
616,0.003016
617,0.00308487
618,0.00315375
619,0.00321776
620,0.00327516
621,0.00333255
622,0.00338995
623,0.00344735
624,0.00350474
625,0.00356214
626,0.00352798
627,0.00348207
628,0.00343615
629,0.00339023
630,0.00334432
631,0.0032984
632,0.00328048
633,0.00331491
634,0.00334935
635,0.00338379
636,0.00341823
637,0.00345267
638,0.0034871
639,0.00350293
640,0.00351441
641,0.00352589
642,0.00353737
643,0.00354885
644,0.00356033
645,0.00356867
646,0.00356867
647,0.00356867
648,0.00356867
649,0.00356867

File: DAT-co-(reg-1,3-DMP).txt
Wavelength (nm),Absorbance
360,0.398344
361,0.405043
362,0.411742
363,0.418441
364,0.425186
365,0.431991
366,0.438796
367,0.445601
368,0.453169
369,0.460782
370,0.468394
371,0.475656
372,0.482802
373,0.489948
374,0.49788
375,0.506271
376,0.514662
377,0.523369
378,0.532192
379,0.541016
380,0.550269
381,0.559611
382,0.568954
383,0.578018
384,0.587058
385,0.596095
386,0.605005
387,0.613915
388,0.622892
389,0.632365
390,0.641837
391,0.651286
392,0.660648
393,0.670009
394,0.67995
395,0.690897
396,0.70169
397,0.710815
398,0.71994
399,0.729545
400,0.74035
401,0.751113
402,0.761186
403,0.771259
404,0.781062
405,0.790828
406,0.800796
407,0.81085
408,0.820184
409,0.828721
410,0.837259
411,0.846029
412,0.854939
413,0.863849
414,0.872136
415,0.880181
416,0.888226
417,0.897172
418,0.906317
419,0.914849
420,0.921797
421,0.928745
422,0.935694
423,0.94187
424,0.947633
425,0.953396
426,0.959159
427,0.963664
428,0.96752
429,0.971377
430,0.975233
431,0.979089
432,0.982946
433,0.985372
434,0.986321
435,0.98727
436,0.98822
437,0.989169
438,0.990119
439,0.991068
440,0.992018
441,0.991238
442,0.988797
443,0.986356
444,0.983916
445,0.981475
446,0.979034
447,0.976594
448,0.971515
449,0.96638
450,0.961246
451,0.956111
452,0.949998
453,0.943299
454,0.9366
455,0.929901
456,0.918471
457,0.907402
458,0.898799
459,0.890197
460,0.880845
461,0.87108
462,0.860955
463,0.85042
464,0.839618
465,0.828161
466,0.816634
467,0.804561
468,0.792488
469,0.780819
470,0.769177
471,0.753869
472,0.738412
473,0.725235
474,0.712223
475,0.699378
476,0.683692
477,0.667249
478,0.652769
479,0.638946
480,0.62639
481,0.6127
482,0.596486
483,0.581594
484,0.566887
485,0.551834
486,0.537159
487,0.522498
488,0.507361
489,0.49262
490,0.47964
491,0.466661
492,0.451933
493,0.43682
494,0.422521
495,0.408364
496,0.394753
497,0.381142
498,0.367882
499,0.354656
500,0.341599
501,0.328604
502,0.316123
503,0.30405
504,0.292299
505,0.281072
506,0.269908
507,0.258989
508,0.248099
509,0.238305
510,0.22851
511,0.21827
512,0.207647
513,0.197205
514,0.187162
515,0.177241
516,0.16871
517,0.160179
518,0.151927
519,0.144611
520,0.137295
521,0.13006
522,0.12419
523,0.11832
524,0.11245
525,0.10658
526,0.101059
527,0.0957601
528,0.0904609
529,0.0851617
530,0.0800601
531,0.0755288
532,0.0709974
533,0.0664661
534,0.0619347
535,0.0574034
536,0.0540217
537,0.0509008
538,0.0477799
539,0.044659