Folder: Polymer_electronics_multimodal_database/conjugated_ECPs/uv_vis_automated/ACS Macro Lett., 5, 714-717, 2016/metadata

Note: conjugated_ECPs/README.md
The files are organized as following:

File: PProDOT.txt
Wavelength (nm)	Absorbance
390	0.158283
392	0.161401
394	0.164518
396	0.168266
398	0.172246
400	0.176226
402	0.180206
404	0.184185
406	0.1887
408	0.193234
410	0.197769
412	0.202303
414	0.207015
416	0.211977
418	0.216939
420	0.221902
422	0.2273429
424	0.233238
426	0.239132
428	0.245055
430	0.251538
432	0.258021
434	0.264504
436	0.271559
438	0.27876
440	0.285961
442	0.293486
444	0.301111
446	0.308736
448	0.316904
450	0.325103
452	0.333729
454	0.3431605
456	0.352994
458	0.364657
460	0.3764
462	0.388408
464	0.400627
466	0.413387
468	0.426602
470	0.440195
472	0.452997
474	0.465619
476	0.478241
478	0.490814
480	0.503297
482	0.5156948
484	0.528039
486	0.540847
488	0.553718
490	0.569739
492	0.586619
494	0.605286
496	0.624841
498	0.644872
500	0.665774
502	0.690768
504	0.708751
506	0.725736
508	0.743798
510	0.759704
512	0.769258
514	0.778812
516	0.783156
518	0.787108
520	0.79106
522	0.79507
524	0.801016
526	0.806961
528	0.812906
530	0.823776
532	0.839991
534	0.861073
536	0.883259
538	0.905986
540	0.928433
542	0.948049
544	0.965781
546	0.977178
548	0.983351
550	0.989524
552	0.992062
554	0.985962
556	0.979863
558	0.97319
560	0.953981
562	0.929059
564	0.900802
566	0.873232
568	0.844244
570	0.815246
572	0.809533
574	0.804308
576	0.802073
578	0.811638
580	0.821203
582	0.833499
584	0.857443
586	0.8834
588	0.906979
590	0.925855
592	0.948679
594	0.96528
596	0.974932
598	0.980493
600	0.986053
602	0.977492
604	0.965673
606	0.951345
608	0.921307
610	0.865193
612	0.791521
614	0.720394
616	0.610518
618	0.539889
620	0.438352
622	0.341182
624	0.268011
626	0.22074
628	0.186471
630	0.155185
632	0.127405
634	0.11229
636	0.101093
638	0.0928127
640	0.0851336
642	0.0774546
644	0.0730996
646	0.0695982
648	0.0660969
650	0.0625955
652	0.0599836
654	0.0584063
656	0.0568291
658	0.0552518
660	0.0536745
662	0.0525182
664	0.0515462
666	0.0505742
668	0.0496021
670	0.0486301
672	0.0477773
674	0.0469337
676	0.04609
678	0.0452463
680	0.0444681
682	0.0440279
684	0.0435878
686	0.0431476
688	0.0427074
690	0.042173
692	0.0414944
694	0.0408158
696	0.0401372
698	0.0394586
700	0.038953
702	0.0385495
704	0.038146
706	0.0377425
708	0.03733903
710	0.0370462
712	0.0367711
714	0.036496
716	0.0362209
718	0.0359353
720	0.0355502
722	0.035165
724	0.0347799
726	0.0343947
728	0.0340638
730	0.0338437
732	0.0336236
734	0.0334035
736	0.0331835
738	0.0329428
740	0.032686
742	0.0324292
744	0.0321725
746	0.0319157
748	0.0316735
750	0.0314351
752	0.0311967
754	0.0309583
756	0.0307219
758	0.03055684
760	0.0303918
762	0.0302267
764	0.0300617
766	0.0299398
768	0.0299398
770	0.0299398
772	0.0299398
774	0.0299398
776	0.0299398
778	0.0299398
780	0.0299398
782	0.0299398
784	0.0299398
786	0.0299398
788	0.0299398
790	0.0299398
792	0.0299398
794	0.0299398
796	0.0300632
798	0.0301916
799	0.03025576

File: ProDOT-EDOS.csv
Wavelength (nm),Absorbance
390,0.131522
392,0.133026
394,0.13453
396,0.136637
398,0.138966
400,0.141295
402,0.143624
404,0.145954
406,0.148636
408,0.151332
410,0.154029
412,0.156725
414,0.159489
416,0.162534
418,0.165578
420,0.168623
422,0.171667
424,0.174862
426,0.178255
428,0.181648
430,0.185041
432,0.188434
434,0.192155
436,0.196043
438,0.199931
440,0.20382
442,0.207708
444,0.212205
446,0.216771
448,0.221338
450,0.225905
452,0.230522
454,0.235478
456,0.240434
458,0.24539
460,0.250358
462,0.256183
464,0.262009
466,0.267834
468,0.273967
470,0.280355
472,0.286743
474,0.293319
476,0.300338
478,0.307358
480,0.31461
482,0.322512
484,0.330413
486,0.338714
488,0.34751
490,0.356337
492,0.365631
494,0.374925
496,0.384362
498,0.393868
500,0.403949
502,0.414576
504,0.425176
506,0.435754
508,0.447088
510,0.458899
512,0.469843
514,0.480348
516,0.492164
518,0.504508
520,0.516852
522,0.52947
524,0.542924
526,0.556117
528,0.569062
530,0.584165
532,0.598748
534,0.612756
536,0.62749
538,0.642467
540,0.657308
542,0.671839
544,0.68557
546,0.699225
548,0.712818
550,0.725846
552,0.73869
554,0.750895
556,0.762631
558,0.773481
560,0.784568
562,0.796019
564,0.807355
566,0.818303
568,0.829641
570,0.841985
572,0.854405
574,0.866888
576,0.880047
578,0.893278
580,0.905533
582,0.917672
584,0.929034
586,0.940397
588,0.949346
590,0.958201
592,0.965694
594,0.970792
596,0.97589
598,0.980988
600,0.983982
602,0.984532
604,0.985083
606,0.9856329
608,0.986183
610,0.985432
612,0.984111
614,0.982791
616,0.98147
618,0.980149
620,0.981147
622,0.98232
624,0.983494
626,0.984668
628,0.986038
630,0.988423
632,0.990807
634,0.993191
636,0.995575
638,0.996537
640,0.995327
642,0.994116
644,0.9929057
646,0.991695
648,0.9872268
650,0.980837
652,0.974446
654,0.96735
656,0.956609
658,0.945869
660,0.933264
662,0.919886
664,0.904352
666,0.887868
668,0.870531
670,0.851385
672,0.831152
674,0.814455
676,0.79593
678,0.775176
680,0.754965
682,0.737603
684,0.719849
686,0.702341
688,0.686353
690,0.671166
692,0.656603
694,0.642842
696,0.630082
698,0.618013
700,0.606224
702,0.593484
704,0.580588
706,0.567273
708,0.553602
710,0.539594
712,0.524182
714,0.508304
716,0.491026
718,0.473236
720,0.455327
722,0.43856
724,0.420419
726,0.401398
728,0.382971
730,0.36669
732,0.35017
734,0.33347
736,0.31705
738,0.301093
740,0.286912
742,0.273275
744,0.261347
746,0.24969
748,0.238372
750,0.22797
752,0.218501
754,0.209239
756,0.201614
758,0.193989
760,0.186786
762,0.180591
764,0.174395
766,0.1682
768,0.163254
770,0.158567
772,0.15388
774,0.149192
776,0.145119
778,0.141671
780,0.138223
782,0.134775
784,0.131327
786,0.128506
788,0.12592
790,0.123334
792,0.120748
794,0.118162
796,0.116617
798,0.115113
799,0.114361

File: ProDOT-EDOT.txt
Wavelength (nm)	Absorbance
390	0.121252
392	0.123545
394	0.125837
396	0.128452
398	0.131184
400	0.133917
402	0.13665
404	0.139382
406	0.142331
408	0.145288
410	0.148245
412	0.151202
414	0.154243
416	0.157402
418	0.160561
420	0.16372
422	0.167989
424	0.172668
426	0.177347
428	0.182026
430	0.186705
432	0.191383
434	0.196062
436	0.200741
438	0.20542
440	0.210336
442	0.215269
444	0.220202
446	0.225135
448	0.23081
450	0.236527
452	0.242244
454	0.248837
456	0.255812
458	0.262787
460	0.270025
462	0.277398
464	0.284771
466	0.292948
468	0.30127
470	0.309622
472	0.318068
474	0.326515
476	0.336329
478	0.34636
480	0.356452
482	0.366572
484	0.377021
486	0.387761
488	0.398909
490	0.410769
492	0.422772
494	0.434978
496	0.447938
498	0.461253
500	0.475881
502	0.490501
504	0.50482
506	0.520672
508	0.53676
510	0.552189
512	0.566734
514	0.581219
516	0.59606
518	0.610385
520	0.623978
522	0.63757
524	0.651163
526	0.664755
528	0.678614
530	0.693454
532	0.708273
534	0.723067
536	0.738574
538	0.755416
540	0.772632
542	0.789392
544	0.806961
546	0.82373
548	0.839671
550	0.854941
552	0.868011
554	0.880957
556	0.888691
558	0.896405
560	0.904119
562	0.907268
564	0.91024
566	0.913212
568	0.916185
570	0.918852
572	0.92134
574	0.923829
576	0.926317
578	0.929088
580	0.935145
582	0.941201
584	0.947258
586	0.954891
588	0.963521
590	0.972121
592	0.978379
594	0.984637
596	0.990895
598	0.994436
600	0.992443
602	0.990449
604	0.988455
606	0.98106
608	0.970704
610	0.956744
612	0.940527
614	0.923016
616	0.903142
618	0.873303
620	0.853461
622	0.8265061
624	0.801483
626	0.779065
628	0.754593
630	0.733945
632	0.710184
634	0.691993
636	0.676199
638	0.660418
640	0.645485
642	0.632236
644	0.621042
646	0.610292
648	0.599995
650	0.589865
652	0.580076
654	0.569214
656	0.556592
658	0.543114
660	0.528897
662	0.512869
664	0.490935
666	0.471847
668	0.453559
670	0.432082
672	0.405344
674	0.383403
676	0.362638
678	0.343036
680	0.322772
682	0.303153
684	0.286139
686	0.269616
688	0.254222
690	0.239754
692	0.227271
694	0.215538
696	0.204738
698	0.19468
700	0.186543
702	0.178406
704	0.171418
706	0.164974
708	0.15853
710	0.152827
712	0.148111
714	0.143394
716	0.138678
718	0.1341
720	0.130835
722	0.127571
724	0.124306
726	0.1210415
728	0.118066
730	0.115682
732	0.113298
734	0.110913
736	0.108529
738	0.106454
740	0.10462
742	0.102786
744	0.100952
746	0.0991178
748	0.09761916
750	0.096207
752	0.0947948
754	0.0933825
756	0.0919735
758	0.0906713
760	0.0893691
762	0.088067
764	0.0867648
766	0.0855202
768	0.08443813
770	0.0833561
772	0.082274
774	0.0811919
776	0.0801733
778	0.0792196
780	0.078266
782	0.0773123
784	0.0763586
786	0.0755117
788	0.0747047
790	0.0738977
792	0.07309077
794	0.0722838
796	0.0720587
798	0.0718569
799	0.0717561