Folder: Polymer_electronics_multimodal_database/conjugated_ECPs/uv_vis_automated/initial_experimental_data_batch1/metadata

Note: conjugated_ECPs/README.md
The files are organized as following:

File: A2-50-B3-50-Yellow.txt
Wavelength (nm)	Absorbance
350	0.41736
352	0.4288
354	0.44633
356	0.46589
358	0.47925
360	0.4944
362	0.5074
364	0.52116
366	0.53312
368	0.5564
370	0.57567
372	0.59443
374	0.61649
376	0.63721
378	0.6548
380	0.6757
382	0.69939
384	0.71936
386	0.73864
388	0.76592
390	0.78287
392	0.80122
394	0.82032
396	0.83605
398	0.85631
400	0.8728
402	0.89504
404	0.91315
406	0.9283
408	0.9427
410	0.95303
412	0.96412
414	0.97266
416	0.98374
418	0.99129
420	0.9975
422	1
424	0.99884
426	0.99884
428	0.99605
430	0.99083
432	0.98508
434	0.97521
436	0.96012
438	0.94171
440	0.92644
442	0.91843
444	0.89817
446	0.86827
448	0.84662
450	0.81626
452	0.78049
454	0.75367
456	0.71048
458	0.68023
460	0.65875
462	0.61817
464	0.5809
466	0.53475
468	0.49846
470	0.45637
472	0.42746
474	0.38572
476	0.34671
478	0.311
480	0.27321
482	0.2447
484	0.22212
486	0.20244
488	0.18595
490	0.1636
492	0.14874
494	0.13213
496	0.12052
498	0.10642
500	0.09463
502	0.08459
504	0.07657
506	0.07042
508	0.06491
510	0.05997
512	0.05591
514	0.05266
516	0.04964
518	0.04755
520	0.04546
522	0.04366
524	0.04215
526	0.04081
528	0.04
530	0.03936
532	0.03866
534	0.03808
536	0.03762
538	0.03733
540	0.03687
542	0.03669
544	0.0364
546	0.03623
548	0.03623
550	0.03599
552	0.03605
554	0.03582
556	0.03576
558	0.0357
560	0.03547
562	0.03541
564	0.03547
566	0.03507
568	0.03507
570	0.03507
572	0.03507
574	0.03478
576	0.03501
578	0.03495
580	0.03478
582	0.03483
584	0.03483
586	0.0346
588	0.03466
590	0.03448
592	0.03448
594	0.03448
596	0.03431
598	0.03437
600	0.03425
602	0.03414
604	0.03419
606	0.03425
608	0.03408
610	0.03414
612	0.03402
614	0.03402
616	0.03402
618	0.03402
620	0.03419
622	0.03402
624	0.03408
626	0.03402
628	0.03396
630	0.03408
632	0.03396
634	0.03396
636	0.03396
638	0.03385
640	0.03385
642	0.03379
644	0.03379
646	0.03367
648	0.0335
650	0.03344
652	0.03356
654	0.03338
656	0.03332
658	0.03338
660	0.03327
662	0.03327
664	0.03327
666	0.03332
668	0.03309
670	0.03315
672	0.03309
674	0.03309
676	0.03315
678	0.03298
680	0.03292
682	0.03286
684	0.03292
686	0.03292
688	0.03286
690	0.03286
692	0.03274
694	0.03274
696	0.0328
698	0.03257
700	0.03269
702	0.03269
704	0.03274
706	0.03257
708	0.03269
710	0.03263
712	0.03257
714	0.03269
716	0.03245
718	0.03257
720	0.03245
722	0.03245
724	0.03251
726	0.03257
728	0.03251
730	0.03263
732	0.03274
734	0.03298
736	0.03298
738	0.03309
740	0.03327
742	0.03303
744	0.03303
746	0.03303
748	0.03298
750	0.03269
752	0.03245
754	0.03245
756	0.03239
758	0.03222
760	0.03216
762	0.03199
764	0.03216
766	0.0321
768	0.03187
770	0.03193
772	0.03187
774	0.0317
776	0.03181
778	0.03193
780	0.0317
782	0.0317
784	0.03187
786	0.03158
788	0.03158
790	0.03152
792	0.03158
794	0.03129
796	0.03129
798	0.03147
800	0.03129

File: A2-65-A3-35-Orange.txt
Wavelength (nm)	Absorbance
350	0.21432
352	0.21577
354	0.21811
356	0.2218
358	0.22582
360	0.22872
362	0.23073
364	0.23263
366	0.23409
368	0.23654
370	0.23922
372	0.2428
374	0.24816
376	0.25229
378	0.25609
380	0.25955
382	0.26279
384	0.26647
386	0.26927
388	0.27451
390	0.27887
392	0.28378
394	0.28847
396	0.2916
398	0.29685
400	0.30143
402	0.30824
404	0.3155
406	0.3222
408	0.32879
410	0.3356
412	0.3432
414	0.35146
416	0.36006
418	0.36844
420	0.37927
422	0.38742
424	0.39569
426	0.40462
428	0.41345
430	0.42651
432	0.43746
434	0.44997
436	0.46504
438	0.48314
440	0.49576
442	0.51363
444	0.52491
446	0.53853
448	0.55428
450	0.56813
452	0.58767
454	0.60107
456	0.61983
458	0.63514
460	0.64563
462	0.66306
464	0.67936
466	0.70092
468	0.71689
470	0.73721
472	0.7505
474	0.77116
476	0.79048
478	0.80902
480	0.83002
482	0.84577
484	0.85872
486	0.87023
488	0.88106
490	0.89781
492	0.90608
494	0.9197
496	0.92886
498	0.94126
500	0.95298
502	0.96404
504	0.97275
506	0.98057
508	0.98682
510	0.99352
512	0.99721
514	0.99966
516	0.99955
518	0.99922
520	0.99587
522	0.98861
524	0.97867
526	0.96627
528	0.95689
530	0.94717
532	0.93098
534	0.91255
536	0.89558
538	0.87737
540	0.85962
542	0.84543
544	0.83036
546	0.81472
548	0.80433
550	0.77909
552	0.76524
554	0.74268
556	0.73006
558	0.7065
560	0.67724
562	0.65233
564	0.62486
566	0.60051
568	0.5631
570	0.5325
572	0.50235
574	0.46337
576	0.42506
578	0.39457
580	0.3566
582	0.32421
584	0.2763
586	0.25296
588	0.22783
590	0.20449
592	0.18014
594	0.16529
596	0.14675
598	0.13391
600	0.12486
602	0.11693
604	0.108
606	0.10353
608	0.09962
610	0.09627
612	0.09314
614	0.09069
616	0.08856
618	0.08655
620	0.08465
622	0.08309
624	0.08175
626	0.08063
628	0.07974
630	0.07896
632	0.07795
634	0.07717
636	0.07617
638	0.07561
640	0.07505
642	0.07472
644	0.07393
646	0.07338
648	0.07248
650	0.07192
652	0.07148
654	0.07103
656	0.07058
658	0.07025
660	0.06991
662	0.06935
664	0.06924
666	0.06891
668	0.06835
670	0.06801
672	0.06757
674	0.06734
676	0.06701
678	0.06667
680	0.06656
682	0.06623
684	0.06578
686	0.06567
688	0.06533
690	0.065
692	0.06466
694	0.06444
696	0.06433
698	0.06388
700	0.06355
702	0.06344
704	0.06332
706	0.06288
708	0.06288
710	0.06277
712	0.06254
714	0.06232
716	0.0621
718	0.06198
720	0.06198
722	0.06176
724	0.06198
726	0.06187
728	0.06165
730	0.06198
732	0.06198
734	0.06243
736	0.06243
738	0.06254
740	0.06277
742	0.06243
744	0.06232
746	0.0621
748	0.06198
750	0.06131
752	0.06075
754	0.06064
756	0.06031
758	0.05975
760	0.05953
762	0.05919
764	0.0593
766	0.05919
768	0.05919
770	0.05897
772	0.05852
774	0.0583
776	0.05863
778	0.0583
780	0.05807
782	0.0583
784	0.05785
786	0.05729
788	0.05718
790	0.05718
792	0.05707
794	0.05685
796	0.05685
798	0.05685
800	0.05651

File: A2-65-B3-35-Orange.txt
Wavelength (nm)	Absorbance
350	0.31939
352	0.32257
354	0.32645
356	0.33204
358	0.33584
360	0.34073
362	0.34469
364	0.34911
366	0.35214
368	0.35928
370	0.36463
372	0.37099
374	0.37782
376	0.38512
378	0.39117
380	0.39831
382	0.40746
384	0.41414
386	0.42182
388	0.43214
390	0.44029
392	0.44851
394	0.45674
396	0.46528
398	0.47513
400	0.48405
402	0.49709
404	0.5109
406	0.52239
408	0.53364
410	0.54458
412	0.55746
414	0.57042
416	0.58392
418	0.59688
420	0.61349
422	0.62497
424	0.63832
426	0.64965
428	0.66261
430	0.67952
432	0.69403
434	0.70893
436	0.726
438	0.74641
440	0.7603
442	0.7707
444	0.78614
446	0.80368
448	0.81765
450	0.83278
452	0.84969
454	0.86195
456	0.87693
458	0.88849
460	0.89617
462	0.90898
464	0.91953
466	0.9335
468	0.94126
470	0.95251
472	0.95973
474	0.9685
476	0.97657
478	0.98401
480	0.98999
482	0.99317
484	0.99674
486	0.99713
488	0.99922
490	1
492	0.99814
494	0.99519
496	0.99286
498	0.98983
500	0.98409
502	0.97594
504	0.96857
506	0.95817
508	0.94824
510	0.93738
512	0.92364
514	0.90937
516	0.89284
518	0.87918
520	0.86009
522	0.83844
524	0.81477
526	0.79018
528	0.77396
530	0.75634
532	0.73128
534	0.70327
536	0.68371
538	0.65679
540	0.63444
542	0.61387
544	0.59347
546	0.57143
548	0.55723
550	0.52215
552	0.50338
554	0.47466
556	0.45821
558	0.43129
560	0.40009
562	0.37487
564	0.3509
566	0.32956
568	0.30193
570	0.27935
572	0.25933
574	0.23434
576	0.21231
578	0.1957
580	0.17591
582	0.1607
584	0.13882
586	0.12811
588	0.11787
590	0.10856
592	0.09863
594	0.09265
596	0.08528
598	0.08008
600	0.07636
602	0.07271
604	0.06945
606	0.06666
608	0.06472
610	0.06309
612	0.06138
614	0.05983
616	0.05866
618	0.05742
620	0.0561
622	0.05533
624	0.0544
626	0.0537
628	0.05308
630	0.05261
632	0.05199
634	0.05145
636	0.05083
638	0.05044
640	0.04997
642	0.04966
644	0.04904
646	0.04873
648	0.04819
650	0.0478
652	0.04757
654	0.04718
656	0.04671
658	0.04656
660	0.04633
662	0.04602
664	0.04594
666	0.04555
668	0.04532
670	0.04501
672	0.04477
674	0.04462
676	0.04439
678	0.04415
680	0.04392
682	0.04377
684	0.04361
686	0.04345
688	0.0433
690	0.04299
692	0.04283
694	0.04268
696	0.04268
698	0.04221
700	0.04229
702	0.04198
704	0.04206
706	0.04167
708	0.04167
710	0.04159
712	0.04136
714	0.04128
716	0.04113
718	0.04113
720	0.04128
722	0.04105
724	0.04113
726	0.04105
728	0.04113
730	0.04113
732	0.04128
734	0.04159
736	0.04183
738	0.0419
740	0.04206
742	0.04183
744	0.04159
746	0.04151
748	0.04136
750	0.04089
752	0.04066
754	0.04058
756	0.04035
758	0.03996
760	0.03965
762	0.03957
764	0.03973
766	0.03965
768	0.0395
770	0.03934
772	0.03919
774	0.03911
776	0.03919
778	0.03911
780	0.0388
782	0.03888
784	0.03895
786	0.03849
788	0.03841
790	0.03833
792	0.0381
794	0.0381
796	0.03795
798	0.03802
800	0.03795

File: A2-65-B5-35-Magenta.txt
Wavelength (nm)	Absorbance
350	0.72133
352	0.71945
354	0.7108
356	0.70469
358	0.69955
360	0.6952
362	0.6926
364	0.68752
366	0.68268
368	0.67572
370	0.66961
372	0.66453
374	0.6603
376	0.65552
378	0.65286
380	0.64808
382	0.64306
384	0.63906
386	0.63483
388	0.6306
390	0.62612
392	0.62297
394	0.61953
396	0.61741
398	0.61378
400	0.61275
402	0.61051
404	0.60973
406	0.6084
408	0.6087
410	0.60737
412	0.60664
414	0.60519
416	0.60465
418	0.60362
420	0.60235
422	0.60192
424	0.60144
426	0.60102
428	0.60186
430	0.60404
432	0.60628
434	0.60906
436	0.61293
438	0.61826
440	0.62176
442	0.62709
444	0.6306
446	0.63441
448	0.639
450	0.64293
452	0.64953
454	0.65485
456	0.66144
458	0.66713
460	0.67167
462	0.67699
464	0.68479
466	0.69423
468	0.70076
470	0.71092
472	0.71516
474	0.72683
476	0.73585
478	0.74692
480	0.7575
482	0.76597
484	0.77522
486	0.78188
488	0.78986
490	0.80269
492	0.80843
494	0.81944
496	0.82948
498	0.83874
500	0.85132
502	0.86154
504	0.87225
506	0.88017
508	0.89106
510	0.89947
512	0.90896
514	0.91707
516	0.92566
518	0.93237
520	0.93963
522	0.94865
524	0.95475
526	0.96522
528	0.96903
530	0.97151
532	0.97816
534	0.98415
536	0.98488
538	0.98978
540	0.99286
542	0.99685
544	0.99613
546	0.99571
548	0.99685
550	0.99698
552	0.99583
554	0.99286
556	0.99298
558	0.98766
560	0.98191
562	0.97865
564	0.97187
566	0.96945
568	0.95711
570	0.95209
572	0.94429
574	0.93395
576	0.92397
578	0.91616
580	0.90515
582	0.89366
584	0.8783
586	0.86553
588	0.85029
590	0.83952
592	0.8195
594	0.80607
596	0.79204
598	0.77752
600	0.76113
602	0.74425
604	0.72006
606	0.70554
608	0.6886
610	0.67342
612	0.65419
614	0.63604
616	0.61813
618	0.59842
620	0.57712
622	0.55831
624	0.53805
626	0.51821
628	0.50006
630	0.48542
632	0.46486
634	0.44707
636	0.43001
638	0.4115
640	0.39523
642	0.38078
644	0.3616
646	0.34606
648	0.32507
650	0.30831
652	0.29416
654	0.27934
656	0.265
658	0.25212
660	0.23808
662	0.22683
664	0.21443
666	0.20215
668	0.18987
670	0.18104
672	0.16647
674	0.15794
676	0.14759
678	0.14039
680	0.13368
682	0.12703
684	0.11777
686	0.11215
688	0.10501
690	0.09896
692	0.09218
694	0.08904
696	0.08384
698	0.0787
700	0.07597
702	0.07222
704	0.06938
706	0.06599
708	0.06351
710	0.06085
712	0.05831
714	0.05656
716	0.05468
718	0.05323
720	0.05129
722	0.04996
724	0.04851
726	0.04748
728	0.047
730	0.04579
732	0.04512
734	0.0447
736	0.04416
738	0.04355
740	0.04283
742	0.04222
744	0.04168
746	0.04113
748	0.04059
750	0.03974
752	0.03914
754	0.03877
756	0.03829
758	0.0375
760	0.03732
762	0.03678
764	0.03666
766	0.03623
768	0.03593
770	0.03569
772	0.03533
774	0.0349
776	0.0349
778	0.0346
780	0.03418
782	0.03412
784	0.03375
786	0.03363
788	0.03333
790	0.03303
792	0.03285
794	0.03272
796	0.0323
798	0.03236
800	0.03218

File: A2-80-A3-20-Red.txt
Wavelength (nm)	Absorbance
350	0.20335
352	0.20421
354	0.20615
356	0.20931
358	0.21233
360	0.2142
362	0.21585
364	0.2175
366	0.21916
368	0.2211
370	0.22361
372	0.22649
374	0.23051
376	0.23396
378	0.23712
380	0.2405
382	0.24373
384	0.24747
386	0.24984
388	0.25472
390	0.25882
392	0.2627
394	0.26665
396	0.2701
398	0.27527
400	0.2793
402	0.28541
404	0.29245
406	0.29827
408	0.30466
410	0.31005
412	0.31709
414	0.32478
416	0.33254
418	0.34016
420	0.34993
422	0.35712
424	0.36473
426	0.37242
428	0.38083
430	0.39197
432	0.40188
434	0.41295
436	0.42631
438	0.44183
440	0.45355
442	0.46885
444	0.47963
446	0.49199
448	0.50514
450	0.51735
452	0.53539
454	0.54775
456	0.56471
458	0.57735
460	0.58705
462	0.60236
464	0.61687
466	0.63663
468	0.65122
470	0.67026
472	0.68262
474	0.70303
476	0.72336
478	0.74197
480	0.76345
482	0.77998
484	0.7955
486	0.80757
488	0.81806
490	0.83603
492	0.84573
494	0.85924
496	0.86937
498	0.88259
500	0.89567
502	0.90803
504	0.92024
506	0.9298
508	0.94209
510	0.95286
512	0.96522
514	0.97514
516	0.98441
518	0.9903
520	0.99425
522	1
524	0.99792
526	0.99497
528	0.98908
530	0.98168
532	0.96817
534	0.95035
536	0.93684
538	0.91758
540	0.90091
542	0.88561
544	0.87152
546	0.85809
548	0.85047
550	0.83394
552	0.82697
554	0.81605
556	0.81009
558	0.79938
560	0.78544
562	0.77143
564	0.75483
566	0.73752
568	0.70964
570	0.68233
572	0.65503
574	0.61551
576	0.57254
578	0.53402
580	0.48416
582	0.44226
584	0.3735
586	0.33649
588	0.29712
590	0.26105
592	0.22124
594	0.19588
596	0.16606
598	0.14464
600	0.13027
602	0.11712
604	0.10297
606	0.09636
608	0.09046
610	0.08579
612	0.08127
614	0.07789
616	0.0748
618	0.07221
620	0.0697
622	0.06783
624	0.06603
626	0.06453
628	0.0633
630	0.0623
632	0.061
634	0.06007
636	0.05906
638	0.05813
640	0.05734
642	0.05677
644	0.05576
646	0.05511
648	0.05411
650	0.05332
652	0.0531
654	0.05224
656	0.05188
658	0.05123
660	0.05066
662	0.05001
664	0.04972
666	0.04936
668	0.04879
670	0.04829
672	0.04786
674	0.04742
676	0.04699
678	0.04663
680	0.04627
682	0.04599
684	0.04541
686	0.04534
688	0.04491
690	0.04455
692	0.04412
694	0.04397
696	0.04383
698	0.04311
700	0.04304
702	0.04268
704	0.04268
706	0.04211
708	0.04218
710	0.04182
712	0.04153
714	0.04146
716	0.0411
718	0.04103
720	0.04074
722	0.04067
724	0.04074
726	0.04053
728	0.04024
730	0.04053
732	0.04038
734	0.04074
736	0.04074
738	0.04089
740	0.04081
742	0.0406
744	0.04045
746	0.04024
748	0.03988
750	0.03945
752	0.03909
754	0.03895
756	0.03873
758	0.03815
760	0.03823
762	0.03772
764	0.03772
766	0.03765
768	0.03744
770	0.03751
772	0.03729
774	0.03708
776	0.03701
778	0.03693
780	0.03672
782	0.03657
784	0.03657
786	0.03629
788	0.03636
790	0.03593
792	0.036
794	0.03578
796	0.03557
798	0.03557
800	0.03542

File: A2-80-B3-20-Red.txt
Wavelength (nm)	Absorbance
350	0.24016
352	0.24126
354	0.24278
356	0.2465
358	0.24933
360	0.25206
362	0.25457
364	0.25678
366	0.25882
368	0.2627
370	0.26611
372	0.27004
374	0.27497
376	0.27969
378	0.28404
380	0.28891
382	0.29468
384	0.30107
386	0.30427
388	0.31172
390	0.31717
392	0.32252
394	0.32881
396	0.33415
398	0.34139
400	0.34794
402	0.35769
404	0.36739
406	0.37609
408	0.3848
410	0.39318
412	0.40294
414	0.41442
416	0.42448
418	0.4345
420	0.44807
422	0.45772
424	0.46862
426	0.47874
428	0.49028
430	0.50532
432	0.51853
434	0.53248
436	0.54878
438	0.56896
440	0.5828
442	0.6
444	0.61295
446	0.62841
448	0.64446
450	0.65714
452	0.67769
454	0.69143
456	0.71056
458	0.72566
460	0.73667
462	0.7513
464	0.76776
466	0.78731
468	0.80031
470	0.81819
472	0.83077
474	0.84912
476	0.8637
478	0.88005
480	0.89861
482	0.90894
484	0.9201
486	0.92666
488	0.93662
490	0.94826
492	0.95334
494	0.95974
496	0.96702
498	0.97431
500	0.98134
502	0.98742
504	0.99072
506	0.99329
508	0.99775
510	0.99706
512	1
514	0.99853
516	0.99166
518	0.99035
520	0.98826
522	0.97987
524	0.96807
526	0.95471
528	0.94396
530	0.93321
532	0.91318
534	0.89342
536	0.87408
538	0.85242
540	0.83486
542	0.81735
544	0.79948
546	0.78301
548	0.77279
550	0.74438
552	0.7309
554	0.70899
556	0.69646
558	0.67313
560	0.64498
562	0.62008
564	0.5936
566	0.56996
568	0.53279
570	0.50081
572	0.47161
574	0.43156
576	0.39229
578	0.35979
580	0.32068
582	0.28781
584	0.24582
586	0.21374
588	0.18343
590	0.16535
592	0.13463
594	0.1189
596	0.10396
598	0.09111
600	0.08262
602	0.0746
604	0.0681
606	0.06291
608	0.05992
610	0.05672
612	0.05394
614	0.05164
616	0.04975
618	0.04802
620	0.0464
622	0.04514
624	0.04388
626	0.04283
628	0.04204
630	0.04142
632	0.04052
634	0.03995
636	0.03942
638	0.03853
640	0.03801
642	0.03754
644	0.03701
646	0.03649
648	0.03575
650	0.03533
652	0.03502
654	0.03455
656	0.03423
658	0.03387
660	0.0335
662	0.03303
664	0.03282
666	0.0325
668	0.03208
670	0.03187
672	0.03145
674	0.03125
676	0.03098
678	0.03067
680	0.03051
682	0.03014
684	0.02993
686	0.02978
688	0.02946
690	0.02925
692	0.02899
694	0.02889
696	0.02873
698	0.02831
700	0.02841
702	0.02799
704	0.0281
706	0.02773
708	0.02763
710	0.02752
712	0.02737
714	0.02721
716	0.027
718	0.02705
720	0.02689
722	0.02679
724	0.02663
726	0.02679
728	0.02663
730	0.02679
732	0.02679
734	0.02689
736	0.02695
738	0.027
740	0.0271
742	0.02689
744	0.02679
746	0.02658
748	0.02658
750	0.02616
752	0.026
754	0.0259
756	0.02564
758	0.02532
760	0.02522
762	0.02506
764	0.02506
766	0.02495
768	0.0248
770	0.0249
772	0.02464
774	0.02443
776	0.02448
778	0.02448
780	0.02438
782	0.02453
784	0.02422
786	0.02401
788	0.02401
790	0.02391
792	0.0238
794	0.0237
796	0.02354
798	0.02359
800	0.02343

File: A2-80-B5-20-Magenta.txt
Wavelength (nm)	Absorbance
350	0.50536
352	0.50606
354	0.50802
356	0.51209
358	0.5153
360	0.51936
362	0.52249
364	0.52547
366	0.52781
368	0.53274
370	0.5372
372	0.54213
374	0.54808
376	0.55434
378	0.55958
380	0.56553
382	0.57233
384	0.57812
386	0.58399
388	0.59158
390	0.59706
392	0.60347
394	0.60958
396	0.6149
398	0.62241
400	0.62882
402	0.63876
404	0.64854
406	0.65644
408	0.66544
410	0.67295
412	0.68164
414	0.68977
416	0.69799
418	0.70542
420	0.71426
422	0.7206
424	0.72709
426	0.73351
428	0.74149
430	0.75221
432	0.76168
434	0.77122
436	0.7828
438	0.79649
440	0.80565
442	0.81676
444	0.82552
446	0.83303
448	0.84234
450	0.84962
452	0.86112
454	0.86754
456	0.87716
458	0.88444
460	0.89054
462	0.89735
464	0.90548
466	0.91472
468	0.92215
470	0.93029
472	0.93733
474	0.94515
476	0.95118
478	0.95814
480	0.96401
482	0.96863
484	0.97332
486	0.97606
488	0.97911
490	0.98388
492	0.98607
494	0.98889
496	0.99225
498	0.99577
500	0.9975
502	0.9989
504	0.99906
506	1
508	0.99875
510	0.99734
512	0.99491
514	0.99398
516	0.98952
518	0.98732
520	0.98333
522	0.97919
524	0.97269
526	0.96471
528	0.95971
530	0.95454
532	0.94805
534	0.93952
536	0.93256
538	0.92364
540	0.91628
542	0.91026
544	0.90142
546	0.89375
548	0.88796
550	0.8727
552	0.86464
554	0.85259
556	0.84563
558	0.83233
560	0.81645
562	0.80291
564	0.78937
566	0.7785
568	0.76019
570	0.74673
572	0.73476
574	0.71794
576	0.703
578	0.68946
580	0.67491
582	0.66184
584	0.64111
586	0.63039
588	0.61865
590	0.60637
592	0.59127
594	0.58047
596	0.56553
598	0.55324
600	0.54198
602	0.52985
604	0.51256
606	0.50239
608	0.49135
610	0.48017
612	0.46796
614	0.45638
616	0.44425
618	0.43142
620	0.4182
622	0.4056
624	0.39293
626	0.37994
628	0.36899
630	0.35952
632	0.34637
634	0.33495
636	0.32415
638	0.31234
640	0.30162
642	0.29301
644	0.28073
646	0.27079
648	0.25726
650	0.24669
652	0.23762
654	0.22792
656	0.21861
658	0.21023
660	0.20092
662	0.19255
664	0.1852
666	0.17737
668	0.16892
670	0.1629
672	0.15288
674	0.14725
676	0.13982
678	0.13481
680	0.12988
682	0.12503
684	0.11814
686	0.11431
688	0.10899
690	0.1043
692	0.10015
694	0.09678
696	0.09248
698	0.08849
700	0.0863
702	0.08317
704	0.08074
706	0.07793
708	0.07535
710	0.07339
712	0.0712
714	0.0694
716	0.06776
718	0.0665
720	0.06471
722	0.06353
724	0.0622
726	0.06126
728	0.06017
730	0.05915
732	0.0586
734	0.05798
736	0.05766
738	0.0568
740	0.05618
742	0.05555
744	0.05485
746	0.05414
748	0.05352
750	0.05266
752	0.05195
754	0.05125
756	0.05078
758	0.05007
760	0.04937
762	0.04898
764	0.04882
766	0.04851
768	0.04804
770	0.04773
772	0.04718
774	0.04679
776	0.04679
778	0.04624
780	0.04601
782	0.04601
784	0.04538
786	0.04499
788	0.04468
790	0.04444
792	0.04413
794	0.04374
796	0.04358
798	0.0435
800	0.04311

File: A2-100.txt
Wavelength (nm)	Absorbance
350	0.24554
352	0.24588
354	0.24834
356	0.25306
358	0.25609
360	0.25901
362	0.26069
364	0.26204
366	0.26361
368	0.26518
370	0.26731
372	0.27056
374	0.27483
376	0.27954
378	0.28268
380	0.28605
382	0.28908
384	0.29155
386	0.29447
388	0.29941
390	0.30288
392	0.30704
394	0.31052
396	0.31377
398	0.31826
400	0.32263
402	0.32869
404	0.3361
406	0.34261
408	0.34912
410	0.35608
412	0.36259
414	0.37055
416	0.37931
418	0.38739
420	0.39771
422	0.40568
424	0.41387
426	0.4215
428	0.43115
430	0.44372
432	0.45494
434	0.46751
436	0.48199
438	0.50039
440	0.51319
442	0.52946
444	0.54203
446	0.5565
448	0.57098
450	0.58433
452	0.60397
454	0.61665
456	0.63607
458	0.65054
460	0.66109
462	0.67804
464	0.69498
466	0.71563
468	0.73123
470	0.75098
472	0.76378
474	0.7842
476	0.80092
478	0.82247
480	0.84211
482	0.85759
484	0.87005
486	0.88004
488	0.8907
490	0.9063
492	0.91516
494	0.92672
496	0.93581
498	0.94535
500	0.95825
502	0.97071
504	0.97924
506	0.9862
508	0.99214
510	0.99495
512	0.99843
514	1
516	0.99776
518	0.99506
520	0.99102
522	0.98317
524	0.96936
526	0.95691
528	0.94445
530	0.93155
532	0.91718
534	0.89923
536	0.88183
538	0.86219
540	0.84536
542	0.82886
544	0.81427
546	0.79789
548	0.78768
550	0.76164
552	0.74717
554	0.7236
556	0.71025
558	0.68488
560	0.65301
562	0.62574
564	0.5969
566	0.57132
568	0.53294
570	0.5005
572	0.46942
574	0.43104
576	0.39289
578	0.3627
580	0.3251
582	0.29424
584	0.24879
586	0.22635
588	0.20301
590	0.18258
592	0.15767
594	0.14095
596	0.12894
598	0.11772
600	0.11009
602	0.10279
604	0.09629
606	0.09124
608	0.08787
610	0.08484
612	0.08215
614	0.08013
616	0.07811
618	0.07631
620	0.07463
622	0.07328
624	0.07182
626	0.0707
628	0.06991
630	0.0689
632	0.06823
634	0.06733
636	0.06655
638	0.06554
640	0.06486
642	0.0643
644	0.06363
646	0.06273
648	0.06172
650	0.06116
652	0.06082
654	0.06015
656	0.05959
658	0.05903
660	0.05847
662	0.05802
664	0.05791
666	0.05734
668	0.05667
670	0.05622
672	0.05589
674	0.05544
676	0.05499
678	0.05454
680	0.05431
682	0.05387
684	0.05342
686	0.0533
688	0.05297
690	0.05274
692	0.05229
694	0.05196
696	0.05173
698	0.0514
700	0.05117
702	0.05095
704	0.05061
706	0.05016
708	0.05039
710	0.05016
712	0.04994
714	0.04971
716	0.0496
718	0.04938
720	0.04938
722	0.04915
724	0.04926
726	0.04904
728	0.04882
730	0.04949
732	0.04949
734	0.04971
736	0.04994
738	0.05005
740	0.05016
742	0.04994
744	0.0496
746	0.04938
748	0.04926
750	0.04859
752	0.04825
754	0.04814
756	0.04781
758	0.04713
760	0.0468
762	0.04691
764	0.0468
766	0.04657
768	0.04635
770	0.04657
772	0.04623
774	0.0459
776	0.04601
778	0.04579
780	0.04567
782	0.04567
784	0.04545
786	0.04511
788	0.045
790	0.04511
792	0.04478
794	0.04444
796	0.04466
798	0.04489
800	0.04422

File: A4-20-A2-80-Orange.txt
Wavelength (nm)	Absorbance
350	0.24676
352	0.24698
354	0.24858
356	0.25361
358	0.258
360	0.26217
362	0.26549
364	0.26784
366	0.26966
368	0.27234
370	0.27523
372	0.27865
374	0.284
376	0.28935
378	0.29428
380	0.2992
382	0.30583
384	0.31097
386	0.31493
388	0.32338
390	0.3283
392	0.33419
394	0.33997
396	0.34468
398	0.35099
400	0.35784
402	0.36586
404	0.37635
406	0.38609
408	0.39593
410	0.40492
412	0.41584
414	0.42675
416	0.43681
418	0.44666
420	0.45853
422	0.46784
424	0.4779
426	0.48764
428	0.50005
430	0.51717
432	0.53173
434	0.54917
436	0.56918
438	0.59058
440	0.60621
442	0.62376
444	0.63553
446	0.64858
448	0.66185
450	0.67405
452	0.68689
454	0.70605
456	0.72295
458	0.73697
460	0.74896
462	0.76629
464	0.78384
466	0.80589
468	0.82172
470	0.84013
472	0.85179
474	0.86923
476	0.88218
478	0.89856
480	0.91386
482	0.92306
484	0.93237
486	0.93933
488	0.94575
490	0.95623
492	0.96137
494	0.96993
496	0.97517
498	0.98406
500	0.99005
502	0.9939
504	0.99722
506	0.99872
508	0.99957
510	0.99818
512	0.99679
514	0.99422
516	0.99048
518	0.98598
520	0.97871
522	0.96972
524	0.95666
526	0.93986
528	0.92755
530	0.91386
532	0.89417
534	0.87063
536	0.85308
538	0.82943
540	0.81017
542	0.79026
544	0.77314
546	0.75559
548	0.74286
550	0.71525
552	0.7007
554	0.67812
556	0.66517
558	0.64291
560	0.61691
562	0.59326
564	0.57025
566	0.54746
568	0.51568
570	0.4886
572	0.46228
574	0.42846
576	0.39551
578	0.36811
580	0.3343
582	0.30605
584	0.26335
586	0.24045
588	0.21723
590	0.19722
592	0.17293
594	0.15859
596	0.14072
598	0.12788
600	0.11953
602	0.1114
604	0.10316
606	0.09877
608	0.09535
610	0.09224
612	0.08946
614	0.08721
616	0.0855
618	0.0839
620	0.08229
622	0.08111
624	0.07994
626	0.07897
628	0.07844
630	0.0778
632	0.07694
634	0.0764
636	0.07555
638	0.07501
640	0.07437
642	0.07405
644	0.07352
646	0.07298
648	0.07234
650	0.07191
652	0.0717
654	0.07095
656	0.07063
658	0.07041
660	0.06998
662	0.06956
664	0.06945
666	0.06913
668	0.0687
670	0.06827
672	0.06795
674	0.06795
676	0.06752
678	0.06731
680	0.06699
682	0.06677
684	0.06635
686	0.06645
688	0.06602
690	0.0657
692	0.06538
694	0.06495
696	0.06517
698	0.06463
700	0.06431
702	0.06431
704	0.06421
706	0.06378
708	0.06378
710	0.06378
712	0.06346
714	0.06324
716	0.06303
718	0.06303
720	0.06292
722	0.06281
724	0.06271
726	0.06271
728	0.06271
730	0.06292
732	0.06292
734	0.06346
736	0.06335
738	0.06356
740	0.06388
742	0.06356
744	0.06335
746	0.06303
748	0.06281
750	0.06217
752	0.06185
754	0.06164
756	0.06153
758	0.06089
760	0.06067
762	0.06025
764	0.06035
766	0.06014
768	0.05982
770	0.05982
772	0.0596
774	0.05928
776	0.05939
778	0.05939
780	0.05896
782	0.05886
784	0.05886
786	0.05853
788	0.05843
790	0.05811
792	0.05789
794	0.05768
796	0.05746
798	0.05768
800	0.05746