Folder: Polymer_electronics_multimodal_database/conjugated_ECPs/uv_vis_automated/initial_experimental_data_batch1/metadata (part 2)

File: A4-35-A2-35-Orange.txt
Wavelength (nm)	Absorbance
350	0.27283
352	0.27337
354	0.27483
356	0.2796
358	0.28398
360	0.28851
362	0.29443
364	0.2982
366	0.30074
368	0.30566
370	0.30935
372	0.31365
374	0.31896
376	0.32449
378	0.32949
380	0.33595
382	0.34417
384	0.35117
386	0.35878
388	0.36823
390	0.37523
392	0.38253
394	0.38799
396	0.39337
398	0.40006
400	0.40583
402	0.41513
404	0.42712
406	0.43904
408	0.45065
410	0.46241
412	0.47517
414	0.48647
416	0.497
418	0.50554
420	0.5153
422	0.52368
424	0.53275
426	0.54282
428	0.55581
430	0.57534
432	0.5924
434	0.61208
436	0.63507
438	0.66021
440	0.67605
442	0.6925
444	0.70372
446	0.71256
448	0.72156
450	0.72909
452	0.74093
454	0.75
456	0.76622
458	0.77875
460	0.78998
462	0.80673
464	0.82457
466	0.84679
468	0.86216
470	0.88061
472	0.89314
474	0.90706
476	0.91943
478	0.9292
480	0.93981
482	0.94534
484	0.95126
486	0.9558
488	0.9601
490	0.96725
492	0.97086
494	0.97771
496	0.98147
498	0.98808
500	0.99347
502	0.99654
504	1
506	0.99869
508	0.99808
510	0.996
512	0.99439
514	0.99277
516	0.98793
518	0.98493
520	0.98163
522	0.97494
524	0.96571
526	0.95195
528	0.94227
530	0.9315
532	0.91152
534	0.89168
536	0.874
538	0.85201
540	0.83226
542	0.81242
544	0.79497
546	0.77652
548	0.76399
550	0.73662
552	0.72279
554	0.70303
556	0.69234
558	0.67382
560	0.65275
562	0.63492
564	0.61685
566	0.5994
568	0.57311
570	0.55074
572	0.52768
574	0.49808
576	0.46733
578	0.44096
580	0.40629
582	0.37685
584	0.32795
586	0.30281
588	0.27345
590	0.24646
592	0.21079
594	0.18558
596	0.16613
598	0.14683
600	0.13338
602	0.12016
604	0.10601
606	0.09932
608	0.09363
610	0.08895
612	0.08479
614	0.08172
616	0.07911
618	0.07688
620	0.07488
622	0.07319
624	0.07203
626	0.07088
628	0.06988
630	0.06911
632	0.06827
634	0.06757
636	0.06681
638	0.06611
640	0.06542
642	0.06496
644	0.06458
646	0.06373
648	0.06327
650	0.06281
652	0.06242
654	0.06188
656	0.06142
658	0.06112
660	0.06065
662	0.06012
664	0.06019
666	0.05973
668	0.05935
670	0.05904
672	0.05873
674	0.05835
676	0.05819
678	0.05789
680	0.05766
682	0.05727
684	0.05704
686	0.05681
688	0.05658
690	0.05635
692	0.05597
694	0.05573
696	0.05573
698	0.05504
700	0.05504
702	0.05474
704	0.05474
706	0.05443
708	0.05443
710	0.05412
712	0.05404
714	0.05381
716	0.05366
718	0.05351
720	0.05351
722	0.0532
724	0.05327
726	0.05312
728	0.05327
730	0.05327
732	0.05304
734	0.05343
736	0.05343
738	0.05351
740	0.05358
742	0.05343
744	0.0532
746	0.05281
748	0.05289
750	0.05243
752	0.05212
754	0.05197
756	0.05189
758	0.05151
760	0.05105
762	0.05105
764	0.05089
766	0.05081
768	0.05089
770	0.05066
772	0.05028
774	0.05012
776	0.05028
778	0.05012
780	0.04997
782	0.04989
784	0.04989
786	0.04966
788	0.04935
790	0.04928
792	0.04912
794	0.04889
796	0.04889
798	0.04897
800	0.04874

File: A4-50-A2-50-Orange.txt
Wavelength (nm)	Absorbance
350	0.30697
352	0.30782
354	0.30893
356	0.3135
358	0.31839
360	0.3227
362	0.32648
364	0.33072
366	0.33536
368	0.34116
370	0.34612
372	0.35174
374	0.35878
376	0.36459
378	0.37046
380	0.37693
382	0.38404
384	0.39291
386	0.39866
388	0.40988
390	0.41869
392	0.42639
394	0.43396
396	0.43944
398	0.44564
400	0.45393
402	0.46476
404	0.47461
406	0.48401
408	0.49406
410	0.50966
412	0.51951
414	0.53139
416	0.54209
418	0.55097
420	0.56193
422	0.56891
424	0.57805
426	0.58705
428	0.5986
430	0.61518
432	0.63038
434	0.64729
436	0.66752
438	0.68996
440	0.70354
442	0.71926
444	0.73003
446	0.73884
448	0.74706
450	0.75424
452	0.76286
454	0.77662
456	0.78804
458	0.79823
460	0.80775
462	0.82133
464	0.83581
466	0.85258
468	0.86655
470	0.88175
472	0.89082
474	0.9057
476	0.91654
478	0.92802
480	0.93872
482	0.9461
484	0.95184
486	0.95732
488	0.96222
490	0.96959
492	0.97448
494	0.97305
496	0.98369
498	0.98871
500	0.9923
502	0.99719
504	0.997
506	0.99778
508	0.99967
510	0.99811
512	0.99811
514	0.99471
516	0.99256
518	0.99106
520	0.98969
522	0.98512
524	0.97579
526	0.96691
528	0.95941
530	0.9461
532	0.93487
534	0.91804
536	0.90205
538	0.87999
540	0.8625
542	0.84443
544	0.82746
546	0.80945
548	0.79725
550	0.76866
552	0.75548
554	0.73571
556	0.72572
558	0.70837
560	0.68774
562	0.67241
564	0.65701
566	0.6418
568	0.61903
570	0.5988
572	0.57824
574	0.55129
576	0.52323
578	0.49889
580	0.46541
582	0.43696
584	0.39611
586	0.36192
588	0.32596
590	0.30266
592	0.25809
594	0.24073
596	0.21045
598	0.1865
600	0.16941
602	0.15283
604	0.1341
606	0.12516
608	0.11714
610	0.11087
612	0.10474
614	0.10043
616	0.09658
618	0.09312
620	0.09025
622	0.08777
624	0.08555
626	0.08372
628	0.08242
630	0.08138
632	0.07994
634	0.07877
636	0.07753
638	0.07642
640	0.07557
642	0.07478
644	0.07381
646	0.07296
648	0.07178
650	0.071
652	0.07035
654	0.06956
656	0.06885
658	0.06826
660	0.06767
662	0.06708
664	0.06663
666	0.06604
668	0.06526
670	0.0648
672	0.06402
674	0.06376
676	0.06304
678	0.06252
680	0.06219
682	0.06186
684	0.06121
686	0.06088
688	0.06036
690	0.05984
692	0.05925
694	0.05886
696	0.05867
698	0.05795
700	0.05782
702	0.05749
704	0.05736
706	0.05677
708	0.05645
710	0.05593
712	0.05553
714	0.05527
716	0.05501
718	0.05495
720	0.05449
722	0.05436
724	0.05403
726	0.0539
728	0.05371
730	0.05384
732	0.05358
734	0.05364
736	0.05358
738	0.05364
740	0.05358
742	0.05332
744	0.05305
746	0.05266
748	0.0524
750	0.05181
752	0.05149
754	0.05129
756	0.0511
758	0.05044
760	0.05018
762	0.04999
764	0.04999
766	0.04973
768	0.0496
770	0.04953
772	0.04927
774	0.04901
776	0.04888
778	0.04875
780	0.04836
782	0.04829
784	0.04836
786	0.04796
788	0.0479
790	0.0477
792	0.04738
794	0.04718
796	0.04705
798	0.04705
800	0.04692

File: A4-50-B3-50-Yellow.txt
Wavelength (nm)	Absorbance
350	0.44048
352	0.44869
354	0.45983
356	0.47321
358	0.48385
360	0.49362
362	0.5032
364	0.51298
366	0.52051
368	0.53214
370	0.54801
372	0.56226
374	0.58106
376	0.59481
378	0.61068
380	0.62972
382	0.64889
384	0.66986
386	0.68511
388	0.70988
390	0.73097
392	0.74933
394	0.76657
396	0.78119
398	0.79625
400	0.81312
402	0.84405
404	0.85793
406	0.87759
408	0.88979
410	0.90485
412	0.92022
414	0.93354
416	0.9499
418	0.95955
420	0.97312
422	0.97903
424	0.98164
426	0.98662
428	0.99166
430	0.99745
432	0.99876
434	0.99925
436	0.99745
438	0.98998
440	0.98538
442	0.97617
444	0.96814
446	0.95855
448	0.94486
450	0.93229
452	0.91188
454	0.88524
456	0.86297
458	0.83963
460	0.82233
462	0.7942
464	0.76539
466	0.72767
468	0.69544
470	0.65648
472	0.63146
474	0.58379
476	0.54552
478	0.49754
480	0.44589
482	0.40699
484	0.37457
486	0.34514
488	0.31869
490	0.28409
492	0.25963
494	0.23144
496	0.21246
498	0.18657
500	0.1674
502	0.14774
504	0.13361
506	0.12197
508	0.11177
510	0.10218
512	0.09441
514	0.08787
516	0.08208
518	0.07779
520	0.07393
522	0.0702
524	0.06733
526	0.06466
528	0.06292
530	0.06161
532	0.06049
534	0.05912
536	0.0585
538	0.05769
540	0.05725
542	0.05657
544	0.0562
546	0.05632
548	0.05595
550	0.05551
552	0.05545
554	0.05507
556	0.05483
558	0.05483
560	0.05451
562	0.05451
564	0.05427
566	0.05433
568	0.05414
570	0.05402
572	0.05383
574	0.05383
576	0.05371
578	0.05383
580	0.05358
582	0.05377
584	0.05364
586	0.05352
588	0.05346
590	0.05339
592	0.05327
594	0.05302
596	0.05302
598	0.05302
600	0.0529
602	0.0529
604	0.05283
606	0.05265
608	0.05283
610	0.05283
612	0.05265
614	0.05265
616	0.0529
618	0.05271
620	0.05259
622	0.05246
624	0.05234
626	0.05227
628	0.05227
630	0.0524
632	0.05234
634	0.0524
636	0.05215
638	0.05209
640	0.05227
642	0.05203
644	0.05196
646	0.05196
648	0.05184
650	0.05178
652	0.05171
654	0.05184
656	0.05153
658	0.05153
660	0.05153
662	0.05147
664	0.05159
666	0.05159
668	0.05134
670	0.0514
672	0.0514
674	0.05122
676	0.05115
678	0.05115
680	0.05109
682	0.05103
684	0.05097
686	0.05109
688	0.05103
690	0.05109
692	0.05091
694	0.05066
696	0.05078
698	0.05047
700	0.05047
702	0.05066
704	0.05059
706	0.05053
708	0.05041
710	0.05047
712	0.05028
714	0.05047
716	0.05028
718	0.05035
720	0.05035
722	0.05028
724	0.05003
726	0.05003
728	0.0501
730	0.0501
732	0.04997
734	0.05003
736	0.05003
738	0.04997
740	0.05003
742	0.05016
744	0.04991
746	0.0501
748	0.04991
750	0.04985
752	0.04991
754	0.04997
756	0.0496
758	0.04991
760	0.04979
762	0.04966
764	0.04979
766	0.04966
768	0.04985
770	0.04972
772	0.0496
774	0.04954
776	0.0496
778	0.04935
780	0.04941
782	0.04947
784	0.04941
786	0.04947
788	0.04923
790	0.04923
792	0.04929
794	0.04935
796	0.04941
798	0.04923
800	0.04935

File: A4-65-A2-35-Red.txt
Wavelength (nm)	Absorbance
350	0.23099
352	0.23186
354	0.23367
356	0.23755
358	0.24054
360	0.24447
362	0.24778
364	0.25147
366	0.25453
368	0.26046
370	0.26514
372	0.2697
374	0.27469
376	0.27925
378	0.28362
380	0.28855
382	0.29511
384	0.30079
386	0.30709
388	0.31527
390	0.32133
392	0.32701
394	0.33319
396	0.33799
398	0.34361
400	0.34942
402	0.35604
404	0.36415
406	0.37208
408	0.38026
410	0.38881
412	0.39849
414	0.40773
416	0.41497
418	0.42246
420	0.43201
422	0.43838
424	0.44581
426	0.45349
428	0.46279
430	0.47628
432	0.48839
434	0.50231
436	0.5181
438	0.5374
440	0.54907
442	0.56399
444	0.57448
446	0.58372
448	0.59371
450	0.60214
452	0.615
454	0.6228
456	0.63703
458	0.64815
460	0.65664
462	0.67006
464	0.68286
466	0.70159
468	0.71569
470	0.73099
472	0.74185
474	0.76014
476	0.77457
478	0.7893
480	0.80753
482	0.81964
484	0.83075
486	0.83787
488	0.84855
490	0.86315
492	0.8709
494	0.88382
496	0.89175
498	0.9038
500	0.91347
502	0.92321
504	0.93258
506	0.93645
508	0.94444
510	0.95143
512	0.95817
514	0.9641
516	0.97116
518	0.97746
520	0.9852
522	0.9907
524	0.99195
526	0.99913
528	0.99863
530	0.99819
532	0.99382
534	0.98464
536	0.97503
538	0.9631
540	0.94731
542	0.93357
544	0.91784
546	0.90248
548	0.892
550	0.86584
552	0.85366
554	0.83762
556	0.83057
558	0.81845
560	0.80797
562	0.79973
564	0.79105
566	0.78237
568	0.77001
570	0.75746
572	0.7441
574	0.72256
576	0.69734
578	0.67449
580	0.64097
582	0.60981
584	0.56068
586	0.51673
588	0.46779
590	0.43439
592	0.36752
594	0.34062
596	0.28849
598	0.24747
600	0.21676
602	0.1866
604	0.15145
606	0.13497
608	0.12018
610	0.1085
612	0.09777
614	0.09009
616	0.08372
618	0.07879
620	0.07435
622	0.07098
624	0.06811
626	0.06593
628	0.06437
630	0.06318
632	0.06149
634	0.06037
636	0.059
638	0.05818
640	0.05712
642	0.05625
644	0.05544
646	0.05456
648	0.05369
650	0.053
652	0.05232
654	0.05163
656	0.05119
658	0.05051
660	0.04994
662	0.04932
664	0.04888
666	0.04832
668	0.04776
670	0.04738
672	0.04682
674	0.04645
676	0.04601
678	0.04545
680	0.04507
682	0.0447
684	0.0442
686	0.04383
688	0.04351
690	0.04301
692	0.04258
694	0.04226
696	0.04202
698	0.04145
700	0.0412
702	0.04077
704	0.04052
706	0.04008
708	0.03996
710	0.03964
712	0.03927
714	0.03896
716	0.03871
718	0.03839
720	0.03827
722	0.03796
724	0.03777
726	0.03758
728	0.03746
730	0.03746
732	0.0374
734	0.03733
736	0.03733
738	0.03733
740	0.03727
742	0.03702
744	0.03665
746	0.03646
748	0.03652
750	0.03577
752	0.03527
754	0.03509
756	0.03484
758	0.03434
760	0.03384
762	0.0339
764	0.03377
766	0.03371
768	0.0334
770	0.03328
772	0.03303
774	0.03265
776	0.03278
778	0.03265
780	0.03228
782	0.03228
784	0.03215
786	0.0319
788	0.03171
790	0.03153
792	0.03128
794	0.03128
796	0.03097
798	0.03109
800	0.03084

File: A4-80-A2-20-Orange.txt
Wavelength (nm)	Absorbance
350	0.31351
352	0.31435
354	0.31594
356	0.31996
358	0.32441
360	0.32864
362	0.33298
364	0.33806
366	0.34208
368	0.35108
370	0.35775
372	0.36431
374	0.3713
376	0.37722
378	0.3822
380	0.38823
382	0.39627
384	0.40326
386	0.41088
388	0.42199
390	0.42993
392	0.43776
394	0.44539
396	0.45174
398	0.45809
400	0.46391
402	0.47195
404	0.48127
406	0.4892
408	0.49894
410	0.50878
412	0.5199
414	0.53101
416	0.54043
418	0.54837
420	0.55747
422	0.56488
424	0.57229
426	0.57949
428	0.5906
430	0.60489
432	0.6178
434	0.634
436	0.65231
438	0.67443
440	0.68851
442	0.70406
444	0.71454
446	0.7246
448	0.73243
450	0.73973
452	0.74873
454	0.75497
456	0.76566
458	0.77456
460	0.78334
462	0.79467
464	0.80726
466	0.82462
468	0.83785
470	0.85309
472	0.86219
474	0.87902
476	0.88992
478	0.90421
480	0.91628
482	0.92411
484	0.93215
486	0.93776
488	0.94327
490	0.95248
492	0.9566
494	0.9638
496	0.96793
498	0.9747
500	0.98084
502	0.98666
504	0.99069
506	0.99227
508	0.99513
510	0.99682
512	0.99905
514	0.9982
516	0.99926
518	0.99936
520	0.99947
522	0.9982
524	0.99471
526	0.98857
528	0.98381
530	0.97682
532	0.96412
534	0.94898
536	0.93607
538	0.91638
540	0.89977
542	0.88177
544	0.86378
546	0.84632
548	0.83298
550	0.80409
552	0.78959
554	0.7699
556	0.75974
558	0.7427
560	0.72481
562	0.70989
564	0.69602
566	0.68205
568	0.66215
570	0.64416
572	0.62606
574	0.60087
576	0.57324
578	0.54943
580	0.51736
582	0.4874
584	0.43724
586	0.40813
588	0.375
590	0.3424
592	0.29572
594	0.26058
596	0.2337
598	0.20417
600	0.18237
602	0.16056
604	0.13548
606	0.12362
608	0.11336
610	0.10489
612	0.09738
614	0.09145
616	0.08711
618	0.0833
620	0.08002
622	0.07748
624	0.07536
626	0.07367
628	0.0725
630	0.07144
632	0.07039
634	0.06933
636	0.06816
638	0.06742
640	0.06668
642	0.06605
644	0.0652
646	0.06435
648	0.06351
650	0.06287
652	0.06234
654	0.06171
656	0.06139
658	0.06086
660	0.06033
662	0.05959
664	0.05948
666	0.05885
668	0.05843
670	0.05811
672	0.05747
674	0.05726
676	0.05673
678	0.05631
680	0.05599
682	0.05546
684	0.05514
686	0.05493
688	0.0544
690	0.05419
692	0.05377
694	0.05356
696	0.05334
698	0.05271
700	0.0526
702	0.05239
704	0.0525
706	0.05165
708	0.05165
710	0.05155
712	0.05091
714	0.05112
716	0.05091
718	0.0507
720	0.05059
722	0.05049
724	0.05049
726	0.05038
728	0.05028
730	0.05038
732	0.05049
734	0.05091
736	0.05102
738	0.05102
740	0.05133
742	0.05112
744	0.05112
746	0.05059
748	0.05038
750	0.04975
752	0.04922
754	0.04911
756	0.04901
758	0.04816
760	0.04784
762	0.04784
764	0.04795
766	0.04784
768	0.04763
770	0.04773
772	0.04699
774	0.04689
776	0.0471
778	0.0471
780	0.04689
782	0.04657
784	0.04668
786	0.04625
788	0.04604
790	0.04625
792	0.04594
794	0.04562
796	0.04541
798	0.04562
800	0.04551

File: A4-90-B3-10-Red.txt
Wavelength (nm)	Absorbance
350	0.29154
352	0.29213
354	0.29469
356	0.29744
358	0.29961
360	0.30285
362	0.30669
364	0.31062
366	0.31396
368	0.31898
370	0.32724
372	0.33451
374	0.34258
376	0.34769
378	0.35211
380	0.35801
382	0.36293
384	0.3704
386	0.37414
388	0.38427
390	0.39499
392	0.40354
394	0.41278
396	0.42124
398	0.42812
400	0.4355
402	0.44749
404	0.45457
406	0.46175
408	0.46873
410	0.47729
412	0.48869
414	0.50108
416	0.51445
418	0.52557
420	0.541
422	0.55113
424	0.56185
426	0.5706
428	0.58279
430	0.59833
432	0.61101
434	0.62419
436	0.64051
438	0.66067
440	0.6767
442	0.69459
444	0.70836
446	0.7233
448	0.73894
450	0.75074
452	0.76323
454	0.77935
456	0.79145
458	0.80039
460	0.80964
462	0.82183
464	0.83314
466	0.84985
468	0.86205
470	0.8767
472	0.88604
474	0.90285
476	0.91524
478	0.93137
480	0.94582
482	0.95388
484	0.96136
486	0.96657
488	0.97188
490	0.9765
492	0.9825
494	0.98515
496	0.9885
498	0.99007
500	0.99302
502	0.99725
504	0.99902
506	0.99912
508	0.99941
510	0.99803
512	0.99685
514	0.99381
516	0.98879
518	0.98368
520	0.97758
522	0.96932
524	0.95801
526	0.94494
528	0.9355
530	0.92527
532	0.90846
534	0.8882
536	0.87158
538	0.85084
540	0.83255
542	0.81042
544	0.79312
546	0.77188
548	0.75811
550	0.72409
552	0.70531
554	0.67955
556	0.6645
558	0.63894
560	0.6119
562	0.58938
564	0.56785
566	0.54828
568	0.52262
570	0.49931
572	0.47886
574	0.45261
576	0.42537
578	0.40472
580	0.37788
582	0.35251
584	0.31613
586	0.29567
588	0.27237
590	0.25074
592	0.2235
594	0.20462
596	0.17925
598	0.15919
600	0.14454
602	0.1296
604	0.1116
606	0.10147
608	0.09292
610	0.08555
612	0.07856
614	0.07345
616	0.06912
618	0.06549
620	0.06254
622	0.06028
624	0.0586
626	0.05703
628	0.05615
630	0.05565
632	0.05497
634	0.05428
636	0.05359
638	0.05329
640	0.053
642	0.05251
644	0.05211
646	0.05211
648	0.05133
650	0.05123
652	0.05074
654	0.05084
656	0.05044
658	0.05034
660	0.04995
662	0.04975
664	0.04995
666	0.05005
668	0.04966
670	0.04946
672	0.04946
674	0.04926
676	0.04916
678	0.04897
680	0.04897
682	0.04867
684	0.04877
686	0.04857
688	0.04838
690	0.04857
692	0.04818
694	0.04818
696	0.04818
698	0.04779
700	0.04759
702	0.04769
704	0.04759
706	0.04769
708	0.04739
710	0.04759
712	0.0472
714	0.0473
716	0.0471
718	0.047
720	0.04671
722	0.0469
724	0.04671
726	0.0469
728	0.04661
730	0.04671
732	0.04671
734	0.04621
736	0.04641
738	0.04631
740	0.04631
742	0.04631
744	0.04602
746	0.04661
748	0.04651
750	0.04631
752	0.04602
754	0.04602
756	0.04582
758	0.04592
760	0.04651
762	0.04612
764	0.04661
766	0.04612
768	0.04631
770	0.04621
772	0.04651
774	0.04602
776	0.04641
778	0.04592
780	0.04602
782	0.04592
784	0.04631
786	0.04641
788	0.04602
790	0.04621
792	0.04651
794	0.04661
796	0.04651
798	0.04641
800	0.04661

File: A4-100.txt
Wavelength (nm)	Absorbance
350	0.18113
352	0.18124
354	0.18102
356	0.18207
358	0.18279
360	0.18368
362	0.18501
364	0.18612
366	0.18717
368	0.18955
370	0.19149
372	0.19381
374	0.19625
376	0.1989
378	0.20117
380	0.20383
382	0.20715
384	0.2102
386	0.21319
388	0.21734
390	0.22038
392	0.2237
394	0.22736
396	0.23024
398	0.23444
400	0.23849
402	0.24408
404	0.24972
406	0.25493
408	0.25996
410	0.26489
412	0.27087
414	0.27751
416	0.28371
418	0.28991
420	0.29838
422	0.30458
424	0.31189
426	0.31748
428	0.32501
430	0.3347
432	0.34245
434	0.35147
436	0.36227
438	0.37555
440	0.38463
442	0.39692
444	0.40606
446	0.41646
448	0.4282
450	0.43894
452	0.45438
454	0.46507
456	0.48051
458	0.49109
460	0.50044
462	0.5139
464	0.52635
466	0.54268
468	0.55525
470	0.57169
472	0.58326
474	0.60009
476	0.61498
478	0.63546
480	0.65572
482	0.67283
484	0.68811
486	0.70211
488	0.7154
490	0.73627
492	0.74895
494	0.76594
496	0.7805
498	0.79467
500	0.81211
502	0.82772
504	0.84095
506	0.8528
508	0.86559
510	0.87982
512	0.89271
514	0.90495
516	0.91857
518	0.93036
520	0.94442
522	0.95942
524	0.96856
526	0.98334
528	0.9917
530	0.99314
532	0.99989
534	0.99956
536	0.9964
538	0.99136
540	0.98428
542	0.97337
544	0.96468
546	0.9525
548	0.94254
550	0.92106
552	0.91298
554	0.89903
556	0.89305
558	0.88347
560	0.87284
562	0.86758
564	0.86177
566	0.85729
568	0.84522
570	0.83592
572	0.82556
574	0.80386
576	0.78222
578	0.75947
580	0.72669
582	0.69359
584	0.64172
586	0.59417
588	0.54002
590	0.50288
592	0.42549
594	0.37771
596	0.32617
598	0.2748
600	0.23428
602	0.1958
604	0.15965
606	0.13181
608	0.11448
610	0.09793
612	0.08359
614	0.07329
616	0.0651
618	0.05868
620	0.05359
622	0.05016
624	0.0475
626	0.04539
628	0.04395
630	0.04296
632	0.04185
634	0.04097
636	0.04019
638	0.03953
640	0.03903
642	0.03859
644	0.03809
646	0.03753
648	0.03709
650	0.03665
652	0.03643
654	0.03604
656	0.03565
658	0.03543
660	0.03504
662	0.03488
664	0.0346
666	0.03449
668	0.03416
670	0.03405
672	0.03366
674	0.03355
676	0.03333
678	0.03316
680	0.03294
682	0.03283
684	0.0325
686	0.0325
688	0.03233
690	0.03211
692	0.03183
694	0.03172
696	0.03161
698	0.03128
700	0.03139
702	0.03111
704	0.03111
706	0.03095
708	0.03095
710	0.03083
712	0.03061
714	0.0305
716	0.03039
718	0.03045
720	0.03028
722	0.03012
724	0.03017
726	0.03006
728	0.03006
730	0.03
732	0.03
734	0.03012
736	0.03017
738	0.03012
740	0.03023
742	0.03006
744	0.02995
746	0.02984
748	0.02973
750	0.02951
752	0.02934
754	0.0294
756	0.02934
758	0.02884
760	0.02879
762	0.02873
764	0.02884
766	0.02868
768	0.02857
770	0.02857
772	0.02834
774	0.02834
776	0.02834
778	0.02823
780	0.02812
782	0.02818
784	0.02812
786	0.0279
788	0.0279
790	0.02785
792	0.02768
794	0.02773
796	0.02768
798	0.02773
800	0.02762