Folder: Polymer_electronics_multimodal_database/conjugated_ECPs/uv_vis_automated/Macromol., 49, 6350-6359, 2016/metadata

Note: conjugated_ECPs/README.md
The files are organized as following:

File: Ac-Ac_EBE.csv
Wavelength (nm),Absorbance
400,0.876556
402,0.90295
404,0.930116
406,0.957834
408,0.985715
410,1.01349
412,1.04193
414,1.07102
416,1.09988
418,1.12815
420,1.1553
422,1.18301
424,1.21009
426,1.2375
428,1.26316
430,1.28723
432,1.31008
434,1.33202
436,1.35265
438,1.37172
440,1.38901
442,1.40577
444,1.41855
446,1.43103
448,1.44121
450,1.44818
452,1.45515
454,1.46165
456,1.46155
458,1.46145
460,1.46135
462,1.45879
464,1.45223
466,1.44567
468,1.43801
470,1.42592
472,1.41384
474,1.39799
476,1.38147
478,1.36204
480,1.3409
482,1.31797
484,1.29463
486,1.26884
488,1.24152
490,1.21291
492,1.1835
494,1.15401
496,1.12523
498,1.09521
500,1.06482
502,1.03384
504,1.00406
506,0.974922
508,0.945884
510,0.917498
512,0.892859
514,0.864136
516,0.83742
518,0.812157
520,0.788118
522,0.765256
524,0.742161
526,0.721104
528,0.701261
530,0.682984
532,0.665805
534,0.649575
536,0.635013
538,0.621187
540,0.609017
542,0.598399
544,0.587781
546,0.579846
548,0.573241
550,0.566636
552,0.560675
554,0.558344
556,0.556012
558,0.553681
560,0.55355
562,0.555947
564,0.558344
566,0.560741
568,0.566262
570,0.572666
572,0.579069
574,0.585705
576,0.594575
578,0.603445
580,0.612314
582,0.622314
584,0.632702
586,0.643089
588,0.654274
590,0.665551
592,0.677092
594,0.689059
596,0.701027
598,0.712953
600,0.724873
602,0.736784
604,0.748656
606,0.760529
608,0.772242
610,0.783878
612,0.795407
614,0.806396
616,0.817385
618,0.827972
620,0.838133
622,0.848293
624,0.8582
626,0.867962
628,0.877723
630,0.886793
632,0.895442
634,0.90409
636,0.912402
638,0.920283
640,0.928165
642,0.936046
644,0.943081
646,0.950042
648,0.957004
650,0.963386
652,0.967885
654,0.972383
656,0.976882
658,0.98075
660,0.9841
662,0.98745
664,0.990858
666,0.994275
668,0.997692
670,1.0
672,1.0
674,1.0
676,1.0
678,0.997907
680,0.995097
682,0.992287
684,0.989477
686,0.986175
688,0.98276
690,0.979345
692,0.975766
694,0.971071
696,0.966375
698,0.961679
700,0.956025
702,0.949162
704,0.942298
706,0.935435
708,0.927739
710,0.919775
712,0.911811
714,0.903624
716,0.894723
718,0.885823
720,0.876923
722,0.867511
724,0.858036
726,0.84856
728,0.838917
730,0.829205
732,0.819492
734,0.809322
736,0.798947
738,0.788573
740,0.777942
742,0.767264
744,0.756535
746,0.745546
748,0.7345575
750,0.723343
752,0.711887
754,0.70043
756,0.688717
758,0.676996
760,0.66492
762,0.652423
764,0.639926
766,0.627744
768,0.615581
770,0.602762
772,0.589503
774,0.576232
776,0.562944
778,0.549633
780,0.536254
782,0.522874
784,0.509237
786,0.49557
788,0.482155
790,0.468838
792,0.455487
794,0.442108
796,0.42884
798,0.416028
799,0.409622

File: Pro-Ac0.7_EBE_0.3.csv
Wavelength (nm),Absorbance
400,0.489696
402,0.50179
404,0.514968
406,0.528146
408,0.545902
410,0.565413
412,0.577853
414,0.591047
416,0.610402
418,0.629473
420,0.648329
422,0.66751
424,0.687031
426,0.70746
428,0.728031
430,0.748698
432,0.769661
434,0.790483
436,0.810832
438,0.83104
440,0.851147
442,0.873426
444,0.894197
446,0.913618
448,0.932898
450,0.952272
452,0.972433
454,0.993447
456,1.01379
458,1.03051
460,1.04672
462,1.06218
464,1.07678
466,1.09009
468,1.10292
470,1.11414
472,1.12535
474,1.1351
476,1.14366
478,1.15223
480,1.16012
482,1.16554
484,1.17096
486,1.17638
488,1.18001
490,1.18211
492,1.18421
494,1.18631
496,1.18512
498,1.18342
500,1.18171
502,1.17931
504,1.17575
506,1.1722
508,1.16864
510,1.16428
512,1.15919
514,1.1541
516,1.14901
518,1.14261
520,1.13598
522,1.12934
524,1.12239
526,1.11387
528,1.10536
530,1.09684
532,1.08654
534,1.07589
536,1.06523
538,1.05312
540,1.04099
542,1.02877
544,1.01644
546,1.00419
548,0.992346
550,0.980505
552,0.969845
554,0.959455
556,0.949325
558,0.940772
560,0.932219
562,0.923665
564,0.915781
566,0.908062
568,0.900343
570,0.89264
572,0.885053
574,0.877465
576,0.869877
578,0.862364
580,0.854941
582,0.847517
584,0.840094
586,0.833568
588,0.827294
590,0.82102
592,0.815081
594,0.811928
596,0.808775
598,0.805621
600,0.804505
602,0.806049
604,0.807593
606,0.809137
608,0.813651
610,0.819104
612,0.824557
614,0.830166
616,0.837425
618,0.844684
620,0.851943
622,0.859635
624,0.867942
626,0.876249
628,0.884556
630,0.892526
632,0.900461
634,0.908397
636,0.916101
638,0.923459
640,0.930817
642,0.938174
644,0.944722
646,0.950962
648,0.957203
650,0.963355
652,0.967888
654,0.972421
656,0.976954
658,0.981337
660,0.985476
662,0.989615
664,0.993754
666,0.996843
668,0.999492
670,1.00214
672,1.00384
674,1.00168
676,0.999531
678,0.997377
680,0.995223
682,0.993069
684,0.990916
686,0.988762
688,0.986608
690,0.982921
692,0.978519
694,0.974117
696,0.969697
698,0.963094
700,0.956492
702,0.94989
704,0.942562
706,0.933794
708,0.925026
710,0.916258
712,0.905376
714,0.894485
716,0.883491
718,0.87194
720,0.860389
722,0.84857
724,0.836466
726,0.824363
728,0.811959
730,0.799549
732,0.786759
734,0.773758
736,0.760328
738,0.746417
740,0.732632
742,0.718991
744,0.705219
746,0.691141
748,0.677028
750,0.662676
752,0.64831
754,0.633847
756,0.619371
758,0.604798
760,0.590161
762,0.575036
764,0.559996
766,0.545644
768,0.531256
770,0.516572
772,0.501854
774,0.486839
776,0.471847
778,0.457052
780,0.442312
782,0.428069
784,0.413843
786,0.399764
788,0.385686
790,0.372398
792,0.359176
794,0.346049
796,0.33299
798,0.318211
799,0.3096

File: Pro-Ac0.65_EBE_0.35.csv
Wavelength (nm),Absorbance
400,0.454186
402,0.467062
404,0.480752
406,0.500493
408,0.518752
410,0.528858
412,0.538964
414,0.54907
416,0.566063
418,0.583129
420,0.599955
422,0.616397
424,0.63284
426,0.648923
428,0.665539
430,0.685033
432,0.70876
434,0.74125
436,0.763629
438,0.782497
440,0.800382
442,0.819873
444,0.836928
446,0.853079
448,0.868022
450,0.883379
452,0.900454
454,0.916674
456,0.930941
458,0.94519
460,0.960255
462,0.978803
464,0.987525
466,0.992971
468,0.998428
470,1.00389
472,1.00935
474,1.0146
476,1.01812
478,1.02164
480,1.02516
482,1.02841
484,1.03117
486,1.03393
488,1.03669
490,1.03705
492,1.03696
494,1.03582
496,1.0345
498,1.03317
500,1.0267
502,1.02002
504,1.01335
506,1.0069
508,1.00047
510,0.994027
512,0.98733
514,0.978668
516,0.970005
518,0.961938
520,0.954441
522,0.946944
524,0.939446
526,0.930149
528,0.919078
530,0.908008
532,0.896946
534,0.886007
536,0.875067
538,0.864127
540,0.855826
542,0.848898
544,0.841971
546,0.835043
548,0.825842
550,0.816132
552,0.806423
554,0.798341
556,0.792044
558,0.785746
560,0.779448
562,0.774189
564,0.770102
566,0.766015
568,0.761928
570,0.758549
572,0.75535
574,0.752152
576,0.748894
578,0.745454
580,0.742015
582,0.738575
584,0.735619
586,0.738394
588,0.74117
590,0.743945
592,0.746721
594,0.749954
596,0.753772
598,0.757591
600,0.761409
602,0.765713
604,0.770761
606,0.775809
608,0.780857
610,0.787921
612,0.79717
614,0.806418
616,0.815267
618,0.823803
620,0.831998
622,0.839043
624,0.846089
626,0.853135
628,0.861768
630,0.870461
632,0.879154
634,0.887847
636,0.895944
638,0.903893
640,0.911662
642,0.916687
644,0.921713
646,0.933544
648,0.946262
650,0.955924
652,0.962283
654,0.96852
656,0.973289
658,0.978059
660,0.982293
662,0.986268
664,0.990242
666,0.994217
668,0.995726
670,0.99672
672,0.997713
674,0.998707
676,0.998726
678,0.998726
680,0.998726
682,0.998726
684,0.998726
686,0.998726
688,0.994369
690,0.988408
692,0.985977
694,0.984387
696,0.981834
698,0.97786
700,0.973885
702,0.969911
704,0.965936
706,0.961962
708,0.957146
710,0.951847
712,0.946548
714,0.939261
716,0.929682
718,0.916433
720,0.905478
722,0.889274
724,0.877849
726,0.867186
728,0.851556
730,0.83418
732,0.828697
734,0.814756
736,0.800816
738,0.78693
740,0.774013
742,0.763414
744,0.748331
746,0.732433
748,0.716294
750,0.70124
752,0.687358
754,0.673548
756,0.659912
758,0.646078
760,0.630748
762,0.615418
764,0.600935
766,0.586693
768,0.571886
770,0.556718
772,0.539882
774,0.523439
776,0.510463
778,0.497487
780,0.483985
782,0.46901
784,0.454035
786,0.438833
788,0.423476
790,0.408763
792,0.395947
794,0.383131
796,0.3693
798,0.355129
799,0.348043

File: Pro-Ac0.75_EBE_0.25.csv
Wavelength (nm),Absorbance
400,0.520077
402,0.535474
404,0.551632
406,0.568266
408,0.585006
410,0.603404
412,0.621946
414,0.641177
416,0.661055
418,0.681584
420,0.701703
422,0.723595
424,0.746519
426,0.769614
428,0.79295
430,0.816136
432,0.839447
434,0.863287
436,0.886892
438,0.911392
440,0.936292
442,0.960727
444,0.985418
446,1.00886
448,1.03308
450,1.05785
452,1.082435
454,1.1059
456,1.12897
458,1.15179
460,1.17373
462,1.19514
464,1.21607
466,1.23593
468,1.25528
470,1.27371
472,1.29071
474,1.30706
476,1.32293
478,1.33871
480,1.35271
482,1.36636
484,1.37861
486,1.39013
488,1.40113
490,1.40902
492,1.41692
494,1.42482
496,1.42849
498,1.43201
500,1.43552
502,1.43806
504,1.43806
506,1.43806
508,1.43806
510,1.43691
512,1.43497
514,1.43303
516,1.4311
518,1.42695
520,1.42258
522,1.41822
524,1.41304
526,1.40504
528,1.39705
530,1.38905
532,1.37704
534,1.36445
536,1.35141
538,1.33642
540,1.32113
542,1.30444
544,1.28751
546,1.27034
548,1.25382
550,1.23742
552,1.22174
554,1.20606
556,1.19292
558,1.17984
560,1.16717
562,1.1546
564,1.14234
566,1.13047
568,1.1186
570,1.10568
572,1.0927
574,1.0785
576,1.06349
578,1.04782
580,1.03169
582,1.01429
584,0.996498
586,0.979148
588,0.96183
590,0.944559
592,0.928142
594,0.91206
596,0.898869
598,0.886871
600,0.875048
602,0.869336
604,0.863625
606,0.857914
608,0.856918
610,0.858166
612,0.859414
614,0.860662
616,0.866178
618,0.871727
620,0.877277
622,0.8833
624,0.890392
626,0.897485
628,0.904578
630,0.911386
632,0.918019
634,0.924652
636,0.931285
638,0.937765
640,0.944233
642,0.950702
644,0.956826
646,0.961916
648,0.967006
650,0.972095
652,0.976202
654,0.979551
656,0.982901
658,0.98625
660,0.988357
662,0.990295
664,0.992232
666,0.993953
668,0.994774
670,0.995595
672,0.996415
674,0.996083
676,0.994639
678,0.993194
680,0.991749
682,0.98806
684,0.983889
686,0.979719
688,0.975218
690,0.96865
692,0.962083
694,0.955515
696,0.948091
698,0.939631
700,0.93117
702,0.922529
704,0.912297
706,0.902065
708,0.891548
710,0.880196
712,0.868843
714,0.856529
716,0.843879
718,0.831036
720,0.8179
722,0.804738
724,0.791101
726,0.777463
728,0.763687
730,0.749891
732,0.735713
734,0.721476
736,0.706861
738,0.692182
740,0.677875
742,0.663637
744,0.649307
746,0.634959
748,0.62043
750,0.605861
752,0.591113
754,0.576323
756,0.56171
758,0.547141
760,0.532987
762,0.518942
764,0.505206
766,0.491664
768,0.478202
770,0.464958
772,0.451637
774,0.437548
776,0.42346
778,0.410019
780,0.396639
782,0.383986
784,0.371886
786,0.359819
788,0.348306
790,0.336792
792,0.325439
794,0.314221
796,0.303002
798,0.292853
799,0.287865

File: Pro-Pro_EBE.txt
Wavelength (nm),Absorbance
400,0.422384
402,0.434375
404,0.446636
406,0.459185
408,0.471997
410,0.485079
412,0.4994
414,0.513723
416,0.528954
418,0.544185
420,0.560072
422,0.576271
424,0.594231
426,0.611181
428,0.627006
430,0.644653
432,0.662935
434,0.684434
436,0.705121
438,0.724756
440,0.745498
442,0.766313
444,0.787134
446,0.808315
448,0.829675
450,0.851749
452,0.873982
454,0.896158
456,0.917763
458,0.940366
460,0.962249
462,0.983757
464,1.00638
466,1.0279
468,1.0491
470,1.07014
472,1.09036
474,1.1103
476,1.12999
478,1.15002
480,1.16955
482,1.18809
484,1.20697
486,1.22644
488,1.24704
490,1.26763
492,1.28599
494,1.30381
496,1.32181
498,1.33931
500,1.35557
502,1.37085
504,1.38491
506,1.39806
508,1.40874
510,1.41941
512,1.42887
514,1.43824
516,1.44761
518,1.45641
520,1.46479
522,1.47318
524,1.48206
526,1.49269
528,1.50331
530,1.51361
532,1.52338
534,1.53315
536,1.54123
538,1.54631
540,1.55138
542,1.55646
544,1.55372
546,1.54951
548,1.5453
550,1.53735
552,1.52553
554,1.51371
556,1.49802
558,1.48223
560,1.46666
562,1.4511
564,1.43968
566,1.42845
568,1.41796
570,1.41351
572,1.40905
574,1.4046
576,1.40119
578,1.39921
580,1.39723
582,1.39525
584,1.38965
586,1.38277
588,1.37589
590,1.3651
592,1.35118
594,1.33472
596,1.31411
598,1.28565
600,1.25687
602,1.22659
604,1.19461
606,1.16146
608,1.1266
610,1.09226
612,1.05937
614,1.03007
616,1.00514
618,0.985323
620,0.972526
622,0.95973
624,0.951674
626,0.946324
628,0.940974
630,0.937371
632,0.93812
634,0.93887
636,0.939972
638,0.941303
640,0.942635
642,0.950764
644,0.962684
646,0.966138
648,0.968124
650,0.970111
652,0.973001
654,0.978299
656,0.983597
658,0.98845
660,0.99299
662,0.997531
664,1.00052
666,1.00165
668,1.00279
670,1.00356
672,1.00356
674,1.00356
676,1.00279
678,0.998818
680,0.995164
682,0.991986
684,0.98877
686,0.985364
688,0.981958
690,0.978489
692,0.973191
694,0.967893
696,0.961625
698,0.953545
700,0.945465
702,0.937043
704,0.927698
706,0.918353
708,0.908846
710,0.897643
712,0.886441
714,0.874814
716,0.86257
718,0.850271
720,0.837135
722,0.823998
724,0.810456
726,0.796752
728,0.783035
730,0.769295
732,0.755396
734,0.740827
736,0.726218
738,0.711428
740,0.696657
742,0.681978
744,0.667281
746,0.652491
748,0.637719
750,0.623039
752,0.60831
754,0.593278
756,0.577926
758,0.562204
760,0.546311
762,0.52496
764,0.508812
766,0.494684
768,0.482717
770,0.4704
772,0.455453
774,0.44254
776,0.428053
778,0.412625
780,0.397867
782,0.382151
784,0.368913
786,0.356844
788,0.338475
790,0.324281
792,0.310695
794,0.299437
796,0.288179
798,0.277381
799,0.272084