Folder: Polymer_electronics_multimodal_database/conjugated_ECPs/uv_vis_automated/Adv. Mater.2010,22,724–728/metadata

Note: conjugated_ECPs/README.md
The files are organized as following:

File: P1.csv
Wavelength (nm),Absorbance
360,0.365076
362,0.368211
364,0.371347
366,0.373896
368,0.376009
370,0.378122
372,0.380235
374,0.382348
376,0.386488
378,0.394393
380,0.402297
382,0.410201
384,0.418105
386,0.425824
388,0.433444
390,0.441064
392,0.453726
394,0.471138
396,0.480094
398,0.48475
400,0.489407
402,0.494063
404,0.504047
406,0.514399
408,0.524751
410,0.538277
412,0.555071
414,0.570167
416,0.582187
418,0.594208
420,0.601195
422,0.608086
424,0.615188
426,0.622876
428,0.630564
430,0.638252
432,0.664368
434,0.67384
436,0.680118
438,0.686397
440,0.693271
442,0.70019
444,0.707109
446,0.713639
448,0.719789
450,0.72594
452,0.731877
454,0.735465
456,0.739053
458,0.74264
460,0.746228
462,0.745795
464,0.743489
466,0.741182
468,0.738776
470,0.736086
472,0.733395
474,0.729479
476,0.723021
478,0.716563
480,0.712947
482,0.709718
484,0.699697
486,0.688243
488,0.685553
490,0.682862
492,0.676739
494,0.66749
496,0.65824
498,0.648373
500,0.638358
502,0.628342
504,0.620221
506,0.612187
508,0.604153
510,0.596119
512,0.594474
514,0.593384
516,0.592295
518,0.591205
520,0.590115
522,0.593712
524,0.59935
526,0.604987
528,0.610625
530,0.618193
532,0.628394
534,0.638595
536,0.648936
538,0.659552
540,0.670169
542,0.681905
544,0.694068
546,0.706569
548,0.7197
550,0.732831
552,0.745122
554,0.757392
556,0.769597
558,0.78176
560,0.794069
562,0.806877
564,0.819685
566,0.832402
568,0.845102
570,0.857081
572,0.868275
574,0.879442
576,0.890385
578,0.901328
580,0.911623
582,0.921253
584,0.930883
586,0.939715
588,0.947382
590,0.955048
592,0.962715
594,0.968691
596,0.973572
598,0.978453
600,0.983335
602,0.988216
604,0.989145
606,0.989422
608,0.989699
610,0.989976
612,0.990254
614,0.989507
616,0.988173
618,0.986839
620,0.985504
622,0.98417
624,0.981461
626,0.971451
628,0.961441
630,0.95143
632,0.941762
634,0.93231
636,0.922857
638,0.911491
640,0.898402
642,0.885312
644,0.872222
646,0.857522
648,0.842218
650,0.826497
652,0.810689
654,0.793378
656,0.775736
658,0.757498
660,0.736744
662,0.714799
664,0.691853
666,0.672023
668,0.650899
670,0.628388
672,0.603573
674,0.578973
676,0.554584
678,0.5305
680,0.504523
682,0.481101
684,0.458942
686,0.434127
688,0.409669
690,0.3854
692,0.360884
694,0.337485
696,0.315331
698,0.295
700,0.27467
702,0.254198
704,0.233629
706,0.214248
708,0.199614
710,0.184408
712,0.168298
714,0.155741
716,0.144158
718,0.134408
720,0.125395
722,0.115977
724,0.106114
726,0.093557
728,0.0858421
730,0.0804605
732,0.0750789
734,0.0682786
736,0.0638492
738,0.0606216
740,0.0573939
742,0.053159
744,0.0469675
746,0.0427877
748,0.0397913
750,0.0367949
752,0.0337986
754,0.0308022
756,0.02811005
758,0.0256682
760,0.0232264
762,0.0207845
764,0.0183427
766,0.0162409
768,0.0156605
770,0.0150801
772,0.0144997
774,0.0139193
776,0.0133389
778,0.0126433
780,0.0119428
782,0.0112423
784,0.0105418
786,0.009841277
788,0.009208958
790,0.008601121
792,0.007993284
794,0.007385447
796,0.006777611
798,0.005863138
799,0.005259955

File: P2.txt
Wavelength (nm)	Absorbance
360	0.335066
362	0.339102
364	0.343138
366	0.347358
368	0.351698
370	0.356038
372	0.365316
374	0.376471
376	0.388458
378	0.401988
380	0.409067
382	0.414085
384	0.419103
386	0.425824
388	0.433444
390	0.441064
392	0.453726
394	0.471138
396	0.480094
398	0.48475
400	0.489407
402	0.494063
404	0.507099
406	0.517691
408	0.52586
410	0.538306
412	0.55516
414	0.570345
416	0.582507
418	0.59467
420	0.620599
422	0.63706
424	0.645777
426	0.654495
428	0.661947
430	0.66656
432	0.671173
434	0.675786
436	0.674411
438	0.672258
440	0.670105
442	0.667953
444	0.6658
446	0.659542
448	0.653263
450	0.646776
452	0.637089
454	0.627403
456	0.6144
458	0.599332
460	0.582237
462	0.558655
464	0.548968
466	0.539282
468	0.520737
470	0.494671
472	0.47725
474	0.465141
476	0.435737
478	0.424974
480	0.414211
482	0.403447
484	0.390197
486	0.376743
488	0.370063
490	0.363605
492	0.360577
494	0.360674
496	0.360771
498	0.3608685
500	0.361749
502	0.367304
504	0.37286
506	0.378415
508	0.383971
510	0.390512
512	0.398563
514	0.406614
516	0.414805
518	0.424834
520	0.434863
522	0.445092
524	0.4555566
526	0.466021
528	0.47685
530	0.487912
532	0.498974
534	0.511
536	0.523328
538	0.53568
540	0.5481657
542	0.560651
544	0.572858
546	0.584985
548	0.597659
550	0.611153
552	0.624636
554	0.63809
556	0.651373
558	0.663482
560	0.67559
562	0.689652
564	0.703734
566	0.716638
568	0.729338
570	0.741987
572	0.75458
574	0.767173
576	0.779766
578	0.792359
580	0.805275
582	0.81831
584	0.830742
586	0.842761
588	0.854598
590	0.865785
592	0.876972
594	0.887991
596	0.898901
598	0.909811
600	0.919012
602	0.928206
604	0.937217
606	0.9451609
608	0.953105
610	0.961049
612	0.970475
614	0.980221
616	0.988154
618	0.989286
620	0.990417
622	0.991549
624	0.992105
626	0.992105
628	0.992105
630	0.992105
632	0.991573
634	0.990681
636	0.989788
638	0.986396
640	0.98185
642	0.977305
644	0.972759
646	0.96811
648	0.956669
650	0.945227
652	0.933786
654	0.948699
656	0.934871
658	0.921042
660	0.907812
662	0.895613
664	0.882778
666	0.86781
668	0.852263
670	0.835541
672	0.817806
674	0.798444
676	0.775598
678	0.753244
680	0.731243
682	0.707479
684	0.681656
686	0.653785
688	0.624494
690	0.595837
692	0.56726
694	0.536859
696	0.502453
698	0.47379
700	0.444772
702	0.416313
704	0.387271
706	0.356953
708	0.328251
710	0.302707
712	0.279113
714	0.256789
716	0.234877
718	0.215093
720	0.197619
722	0.17327
724	0.155658
726	0.13985
728	0.125603
730	0.111551
732	0.0943276
734	0.0760605
736	0.063141
738	0.0590133
740	0.0548855
742	0.0507577
744	0.0466299
746	0.0426417
748	0.0394156
750	0.0361895
752	0.03296346
754	0.0297374
756	0.026548
758	0.0247187
760	0.0228894
762	0.02106014
764	0.0192309
766	0.0174016
768	0.0158477
770	0.0152006
772	0.0145535
774	0.0139063
776	0.0132592
778	0.0126119
780	0.0119425
782	0.0112731
784	0.0106038
786	0.009934426
788	0.009265064
790	0.0086126
792	0.007964735
794	0.00731687
796	0.006669005
798	0.00602114
799	0.005645888

File: P3.csv
Wavelength (nm),Absorbance
360,0.320658
362,0.332391
364,0.338541
366,0.344692
368,0.354421
370,0.396754
372,0.4038
374,0.410258
376,0.416716
378,0.427332
380,0.439441
382,0.449451
384,0.458868
386,0.469395
388,0.478877
390,0.486053
392,0.494026
394,0.502099
396,0.503637
398,0.504713
400,0.505789
402,0.506866
404,0.507705
406,0.5034
408,0.499095
410,0.491996
412,0.482789
414,0.472026
416,0.462456
418,0.452421
420,0.43807
422,0.423719
424,0.403211
426,0.390566
428,0.376895
430,0.353421
432,0.341853
434,0.332166
436,0.318855
438,0.28423
440,0.269539
442,0.260122
444,0.238224
446,0.215513
448,0.193032
450,0.189803
452,0.184829
454,0.162705
456,0.1584
458,0.154095
460,0.152124
462,0.151355
464,0.150586
466,0.150142
468,0.15074
470,0.151338
472,0.151936
474,0.152534
476,0.153757
478,0.155102
480,0.156447
482,0.157793
484,0.166184
486,0.172693
488,0.176281
490,0.179868
492,0.184819
494,0.191012
496,0.197204
498,0.202583
500,0.206315
502,0.210047
504,0.214102
506,0.219781
508,0.225459
510,0.231138
512,0.236816
514,0.242895
516,0.24938
518,0.255866
520,0.262351
522,0.268837
524,0.275782
526,0.282798
528,0.289815
530,0.296831
532,0.303848
534,0.311178
536,0.319508
538,0.327838
540,0.336168
542,0.344498
544,0.353207
546,0.362027
548,0.370847
550,0.379666
552,0.389143
554,0.399273
556,0.409403
558,0.419533
560,0.429673
562,0.439824
564,0.449976
566,0.460128
568,0.470279
570,0.480756
572,0.492253
574,0.50375
576,0.518156
578,0.534275
580,0.550185
582,0.557772
584,0.565358
586,0.576216
588,0.588885
590,0.601554
592,0.6155
594,0.629777
596,0.643445
598,0.656839
600,0.670037
602,0.682986
604,0.695935
606,0.708121
608,0.720275
610,0.737198
612,0.74992
614,0.761988
616,0.781114
618,0.7951737
620,0.802107
622,0.809041
624,0.824668
626,0.837954
628,0.845009
630,0.852065
632,0.861781
634,0.872473
636,0.884072
638,0.896181
640,0.904298
642,0.910577
644,0.916855
646,0.9265
648,0.937263
650,0.942528
652,0.946372
654,0.950216
656,0.956232
658,0.965918
660,0.975605
662,0.97849
664,0.980836
666,0.983183
668,0.986203
670,0.990929
672,0.995655
674,0.999928
676,0.999031
678,0.998134
680,0.996307
682,0.989069
684,0.981831
686,0.974593
688,0.965247
690,0.955699
692,0.94615
694,0.933947
696,0.915569
698,0.895463
700,0.869022
702,0.8504375
704,0.832947
706,0.812066
708,0.790897
710,0.766008
712,0.742789
714,0.723168
716,0.706933
718,0.690698
720,0.671018
722,0.649233
724,0.64283
726,0.636427
728,0.630024
730,0.626379
732,0.623904
734,0.621429
736,0.618954
738,0.618601
740,0.618831
742,0.619061
744,0.61929
746,0.61952
748,0.61975
750,0.62027
752,0.620898
754,0.621525
756,0.622153
758,0.62278
760,0.623408
762,0.616905
764,0.604796
766,0.589133
768,0.571138
770,0.558717
772,0.521158
774,0.472914
776,0.460391
778,0.409039
780,0.3536
782,0.337633
784,0.321666
786,0.279342
788,0.234196
790,0.219411
792,0.198063
794,0.162706
796,0.142974
798,0.130566
799,0.124531

File: P4a.txt
Wavelength (nm)	Absorbance
438	0.319797
439	0.370558
440	0.375635
441	0.380711
442	0.436548
443	0.456853
444	0.456853
445	0.497462
446	0.48731
447	0.497462
448	0.507614
449	0.507614
450	0.507614
451	0.497462
452	0.48731
453	0.482234
454	0.48731
455	0.482234
456	0.48731
457	0.492386
458	0.502538
459	0.51269
460	0.527919
461	0.517766
462	0.527919
463	0.527919
464	0.527919
465	0.527919
466	0.532995
467	0.502538
468	0.517766
469	0.502538
470	0.477157
471	0.467005
472	0.446701
473	0.365482
474	0.375635
475	0.329949
476	0.299492
477	0.295848
478	0.292204
479	0.288559
480	0.284915
481	0.28127
482	0.277626
483	0.273982
484	0.270337
485	0.266693
486	0.263048
487	0.259404
488	0.255759
489	0.252115
490	0.248471
491	0.244826
492	0.241182
493	0.237537
494	0.233893
495	0.230249
496	0.226604
497	0.22296
498	0.219315
499	0.215671
500	0.212027
501	0.208382
502	0.204738
503	0.201093
504	0.197449
505	0.193805
506	0.19016
507	0.186516
508	0.182871
509	0.179227
510	0.175582
511	0.171938
512	0.168294
513	0.164649
514	0.161005
515	0.15736
516	0.152284
517	0.167513
518	0.172589
519	0.177665
520	0.182741
521	0.187817
522	0.192893
523	0.203046
524	0.19797
525	0.203046
526	0.22335
527	0.232777
528	0.242204
529	0.251632
530	0.261059
531	0.270486
532	0.279913
533	0.28934
534	0.298767
535	0.308194
536	0.317621
537	0.327049
538	0.336476
539	0.345903
540	0.35533
541	0.365482
542	0.380711
543	0.390863
544	0.406091
545	0.416244
546	0.431472
547	0.446701
548	0.456853
549	0.472081
550	0.48731
551	0.502538
552	0.517766
553	0.532995
554	0.553299
555	0.568528
556	0.588832
557	0.604061
558	0.619289
559	0.639594
560	0.654822
561	0.675127
562	0.695431
563	0.71066
564	0.725888
565	0.741117
566	0.766497
567	0.77665
568	0.796954
569	0.817259
570	0.832487
571	0.847716
572	0.862944
573	0.873096
574	0.893401
575	0.908629
576	0.918782
577	0.928934
578	0.939086
579	0.940609
580	0.947208
581	0.953807
582	0.960406
583	0.967005
584	0.973604
585	0.980203
586	0.986802
587	0.993401
588	1
589	1
590	1
591	1
592	0.992386
593	0.994924
594	0.974619
595	0.969543
596	0.964467
597	0.969543
598	0.959391
599	0.954315
600	0.91298
601	0.897027
602	0.881073
603	0.86512
604	0.849166
605	0.833212
606	0.817259
607	0.817259
608	0.796954
609	0.786802
610	0.771574
611	0.786802
612	0.786802
613	0.730964
614	0.720812
615	0.705584
616	0.695431
617	0.695431
618	0.680203
619	0.664975
620	0.649746
621	0.629442
622	0.626904
623	0.624365
624	0.609137
625	0.593909
626	0.573604
627	0.538071
628	0.507614
629	0.477157
630	0.467005
631	0.472081
632	0.451777
633	0.378173
634	0.345178
635	0.360406
636	0.324873
637	0.304569
638	0.274112
639	0.248731
640	0.309645
641	0.19797
642	0.253807
643	0.162437
644	0.142132
645	0.126904
646	0.116751
647	0.0964467
648	0.0862944
649	0.0761421
650	0.0659898
651	0.0609137
652	0.0507614
653	0.0456853
654	0.0253807
655	0.0304569
656	0.0203046
657	0.0203046
658	0.0152284
659	0.0101523
660	0.0152284
661	0.0101523
662	0.005076142
663	0
664	0
665	0

File: P4b.txt
Wavelength (nm)	Absorbance
438	0.360825
439	0.365979
440	0.396907
441	0.412371
442	0.412371
443	0.405589
444	0.398806
445	0.392024
446	0.385241
447	0.378459
448	0.371677
449	0.364894
450	0.358112
451	0.351329
452	0.344547
453	0.337765
454	0.330982
455	0.3242
456	0.317417
457	0.310635
458	0.303852
459	0.29707
460	0.290288
461	0.283505
462	0.276723
463	0.26994
464	0.263158
465	0.256375
466	0.249593
467	0.242811
468	0.236028
469	0.229246
470	0.222463
471	0.215681
472	0.208899
473	0.202116
474	0.195334
475	0.188551
476	0.181769
477	0.174986
478	0.168204
479	0.161422
480	0.154639
481	0.139175
482	0.139175
483	0.123711
484	0.113402
485	0.108247
486	0.103093
487	0.0927835
488	0.0927835
489	0.0824742
490	0.0850515
491	0.0876289
492	0.0876289
493	0.0824742
494	0.0876289
495	0.0939964
496	0.100364
497	0.106731
498	0.113099
499	0.119466
500	0.125834
501	0.132201
502	0.138569
503	0.144936
504	0.151304
505	0.157671
506	0.164039
507	0.170406
508	0.176774
509	0.183141
510	0.189509
511	0.195876
512	0.202244
513	0.208611
514	0.214979
515	0.221346
516	0.227714
517	0.234081
518	0.240449
519	0.246816
520	0.253184
521	0.259551
522	0.265919
523	0.272286
524	0.278654
525	0.285021
526	0.291389
527	0.297756
528	0.304124
529	0.310491
530	0.316859
531	0.323226
532	0.329594
533	0.335961
534	0.342329
535	0.348696
536	0.355064
537	0.361431
538	0.367799
539	0.374166
540	0.380534
541	0.386901
542	0.393269
543	0.399636
544	0.406004
545	0.412371
546	0.417526
547	0.438144
548	0.438144
549	0.463918
550	0.474227
551	0.489691
552	0.505155
553	0.530928
554	0.541237
555	0.556701
556	0.572165
557	0.592784
558	0.603093
559	0.623711
560	0.639175
561	0.659794
562	0.675258
563	0.695876
564	0.701031
565	0.731959
566	0.752577
567	0.768041
568	0.78866
569	0.804124
570	0.819588
571	0.835052
572	0.85567
573	0.865979
574	0.881443
575	0.896907
576	0.912371
577	0.92268
578	0.938144
579	0.948454
580	0.953608
581	0.963918
582	0.974227
583	0.994845
584	0.984536
585	0.981443
586	0.983505
587	0.985567
588	0.987629
589	0.989691
590	0.991753
591	0.993814
592	0.995876
593	0.997938
594	1
595	0.994845
596	0.989691
597	0.974227
598	0.963918
599	0.958763
600	0.948454
601	0.938144
602	0.927835
603	0.912371
604	0.902062
605	0.886598
606	0.871134
607	0.860825
608	0.850515
609	0.835052
610	0.819588
611	0.809278
612	0.78866
613	0.778351
614	0.768041
615	0.752577
616	0.742268
617	0.726804
618	0.706186
619	0.690722
620	0.680412
621	0.659794
622	0.64433
623	0.623711
624	0.598511
625	0.578465
626	0.558419
627	0.538373
628	0.518328
629	0.498282
630	0.478236
631	0.45819
632	0.438144
633	0.427835
634	0.412371
635	0.396907
636	0.376289
637	0.35567
638	0.340206
639	0.319588
640	0.304124
641	0.28866
642	0.273196
643	0.257732
644	0.242268
645	0.226804
646	0.21134
647	0.195876
648	0.185567
649	0.170103
650	0.159794
651	0.149485
652	0.139175
653	0.128866
654	0.113402
655	0.108247
656	0.0927835
657	0.0876289
658	0.0824742
659	0.0721649
660	0.0670103
661	0.056701
662	0.056701
663	0.0515464
664	0.0463918
665	0.0412371
666	0.0309278
667	0.0309278
668	0.0257732
669	0.0257732
670	0.0206186
671	0.0206186
672	0.0154639
673	0.0103093
674	0.0103093
675	0.0103093
676	0.008591065
677	0.006872852
678	0.005154639
679	0.00257732
680	0
681	0

File: P4c.csv
Wavelength (nm),Absorbance
438,0.430233
439,0.459302
440,0.494186
441,0.523256
442,0.569767
443,0.593023
444,0.622093
445,0.639535
446,0.651163
447,0.656977
448,0.645349
449,0.656977
450,0.651163
451,0.639535
452,0.622093
453,0.598837
454,0.581395
455,0.563953
456,0.546512
457,0.55814
458,0.563953
459,0.569767
460,0.563953
461,0.562016
462,0.560078
463,0.55814
464,0.540698
465,0.52907
466,0.540698
467,0.517442
468,0.5
469,0.461563
470,0.434755
471,0.407946
472,0.381137
473,0.354328
474,0.327519
475,0.300711
476,0.273902
477,0.247093
478,0.220284
479,0.193475
480,0.166667
481,0.139858
482,0.113049
483,0.08624031
484,0.0594315
485,0.0326227
486,0.005813953
487,0.005813953
488,0.005813953
489,0.005813953
490,0.005813953
491,0.005813953
492,0
493,0.0116279
494,0.002906977
495,0.005813953
496,0.0232558
497,0.0290698
498,0.01744186
499,0.0232558
500,0.0290698
501,0.0465116
502,0.0523256
503,0.0581395
504,0.0697674
505,0.0755814
506,0.0813953
507,0.0872093
508,0.0872093
509,0.104651
510,0.110465
511,0.104651
512,0.127907
513,0.116279
514,0.145349
515,0.156977
516,0.162791
517,0.174419
518,0.186047
519,0.19186
520,0.186047
521,0.197674
522,0.226744
523,0.238372
524,0.25
525,0.267442
526,0.27907
527,0.290698
528,0.302326
529,0.319767
530,0.331395
531,0.348837
532,0.360465
533,0.377907
534,0.389535
535,0.412791
536,0.424419
537,0.44186
538,0.459302
539,0.476744
540,0.494186
541,0.511628
542,0.52907
543,0.546512
544,0.569767
545,0.581395
546,0.604651
547,0.622093
548,0.639535
549,0.656977
550,0.680233
551,0.697674
552,0.715116
553,0.732558
554,0.755814
555,0.767442
556,0.790698
557,0.802326
558,0.819767
559,0.831395
560,0.854651
561,0.866279
562,0.883721
563,0.895349
564,0.901163
565,0.918605
566,0.906977
567,0.918605
568,0.947674
569,0.952762
570,0.957849
571,0.962936
572,0.968023
573,0.97311
574,0.978198
575,0.983285
576,0.988372
577,1
578,1
579,1
580,1
581,1
582,0.988372
583,0.979328
584,0.970284
585,0.96124
586,0.952196
587,0.943152
588,0.934109
589,0.925065
590,0.916021
591,0.906977
592,0.912791
593,0.901163
594,0.883721
595,0.872093
596,0.854651
597,0.837209
598,0.819767
599,0.802326
600,0.784884
601,0.767442
602,0.755814
603,0.738372
604,0.72093
605,0.703488
606,0.69186
607,0.674419
608,0.662791
609,0.651163
610,0.639535
611,0.627907
612,0.622093
613,0.610465
614,0.598837
615,0.593023
616,0.581395
617,0.569767
618,0.563953
619,0.552326
620,0.540698
621,0.505814
622,0.517442
623,0.505814
624,0.488372
625,0.476744