Folder: Polymer_electronics_multimodal_database/conjugated_ECPs/uv_vis_automated/Adv. Optical Mater. 6, 1800594, 2018/metadata

Note: conjugated_ECPs/README.md
The files are organized as following:

File: ECP-cyan.csv
Wavelength (nm),Absorbance
320,0.318222
322,0.319473
324,0.320457
326,0.317956
328,0.315454
330,0.310286
332,0.302781
334,0.295276
336,0.286942
338,0.280571
340,0.276402
342,0.272233
344,0.270375
346,0.271625
348,0.272876
350,0.275485
352,0.278265
354,0.281044
356,0.283824
358,0.287214
360,0.291905
362,0.298133
364,0.30814
366,0.318146
368,0.332381
370,0.345714
372,0.358222
374,0.367788
376,0.377651
378,0.394328
380,0.40619
382,0.415571
384,0.429545
386,0.445111
388,0.451365
390,0.458095
392,0.470603
394,0.482968
396,0.492349
398,0.501706
400,0.509524
402,0.517341
404,0.522079
406,0.52677
408,0.527837
410,0.52873
412,0.529624
414,0.526815
416,0.518476
418,0.514165
420,0.510413
422,0.505278
424,0.49746
426,0.487222
428,0.471894
430,0.457302
432,0.437841
434,0.409714
436,0.389185
438,0.375048
440,0.36254
442,0.343508
444,0.330836
446,0.315937
448,0.28419
450,0.272222
452,0.265968
454,0.259714
456,0.251005
458,0.241063
460,0.237937
462,0.234698
464,0.228444
466,0.22219
468,0.217803
470,0.215302
472,0.2128
474,0.212098
476,0.211473
478,0.210848
480,0.210222
482,0.209597
484,0.209524
486,0.209524
488,0.209524
490,0.210556
492,0.213683
494,0.21681
496,0.220159
498,0.224067
500,0.227976
502,0.231885
504,0.235719
506,0.239293
508,0.242866
510,0.24644
512,0.25181
514,0.258063
516,0.262095
518,0.264875
520,0.267654
522,0.270434
524,0.274794
526,0.288735
528,0.294095
530,0.299456
532,0.30481
534,0.3095
536,0.31419
538,0.332667
540,0.336349
542,0.339476
544,0.342603
546,0.348603
548,0.354857
550,0.364815
552,0.373714
554,0.379968
556,0.386222
558,0.392476
560,0.400762
562,0.409517
564,0.420444
566,0.437122
568,0.450667
570,0.462603
572,0.47261
574,0.482616
576,0.490032
578,0.496286
580,0.50254
582,0.512825
584,0.525333
586,0.538802
588,0.552873
590,0.566032
592,0.57854
594,0.587587
596,0.593841
598,0.600286
600,0.619048
602,0.63781
604,0.656571
606,0.664722
608,0.67254
610,0.68623
612,0.700302
614,0.724317
616,0.740021
618,0.752972
620,0.763135
622,0.774361
624,0.787651
626,0.799246
628,0.807063
630,0.815608
632,0.826032
634,0.836455
636,0.84627
638,0.854087
640,0.862646
642,0.874111
644,0.885577
646,0.897452
648,0.911524
650,0.924603
652,0.930857
654,0.937513
656,0.947937
658,0.956993
660,0.965034
662,0.973075
664,0.981037
666,0.985206
668,0.989376
670,0.993545
672,0.996698
674,0.999825
676,1.00295
678,1.00608
680,1.00921
682,1.01233
684,1.01546
686,1.01316
688,1.01003
690,1.00578
692,1.00132
694,0.996848
696,0.99254
698,0.988631
700,0.984722
702,0.980813
704,0.97666
706,0.971657
708,0.966654
710,0.957365
712,0.946108
714,0.935127
716,0.925746
718,0.91673
720,0.910476
722,0.903503
724,0.88891
726,0.875492
728,0.863841
730,0.852897
732,0.841143
734,0.831778
736,0.822476
738,0.809968
740,0.79746
742,0.786333
744,0.775619
746,0.763111
748,0.748622
750,0.731179
752,0.714204
754,0.692222
756,0.66709
758,0.649693
760,0.626667
762,0.605757
764,0.589365
766,0.564825
768,0.533587
770,0.494762
772,0.464508
774,0.438175
776,0.415111
778,0.385566
780,0.364762
782,0.338455
784,0.320762
786,0.295079
788,0.265397
790,0.251499
792,0.237601
794,0.222662
796,0.207556
798,0.195048
799,0.188794

File: ECP-green.txt
Wavelength (nm),Absorbance
320,0.248405
322,0.248649
324,0.248649
326,0.247299
328,0.245714
330,0.241319
332,0.236246
334,0.231384
336,0.227157
338,0.22293
340,0.218892
342,0.215722
344,0.212973
346,0.212973
348,0.213157
350,0.21527
352,0.217384
354,0.219516
356,0.222686
358,0.225857
360,0.229643
362,0.233448
364,0.238303
366,0.244643
368,0.250517
370,0.255589
372,0.260662
374,0.266762
376,0.273103
378,0.278801
380,0.282605
382,0.28641
384,0.295286
386,0.306382
388,0.317135
390,0.327703
392,0.33827
394,0.352519
396,0.369014
398,0.376939
400,0.384865
402,0.412988
404,0.424084
406,0.434478
408,0.455957
410,0.470973
412,0.482076
414,0.49053
416,0.519654
418,0.531222
420,0.544432
422,0.558812
424,0.569908
426,0.578709
428,0.586635
430,0.603568
432,0.612022
434,0.619141
436,0.625481
438,0.631822
440,0.638162
442,0.64245
444,0.644986
446,0.647522
448,0.645492
450,0.643378
452,0.641265
454,0.633362
456,0.626188
458,0.621116
460,0.616043
462,0.60993
464,0.603589
466,0.589878
468,0.579589
470,0.570216
472,0.556714
474,0.539805
476,0.521503
478,0.500892
480,0.482162
482,0.471427
484,0.458746
486,0.433303
488,0.426638
490,0.405038
492,0.399965
494,0.394893
496,0.385046
498,0.374902
500,0.368243
502,0.367186
504,0.36613
506,0.365405
508,0.365405
510,0.365405
512,0.367205
514,0.369583
516,0.371961
518,0.374339
520,0.377665
522,0.381469
524,0.385432
526,0.390716
528,0.396
530,0.401227
532,0.405031
534,0.408836
536,0.416146
538,0.427242
540,0.438108
542,0.448676
544,0.458292
546,0.467803
548,0.476772
550,0.485649
552,0.493504
554,0.498939
556,0.504374
558,0.509808
560,0.524973
562,0.542459
564,0.553027
566,0.563595
568,0.573865
570,0.581791
572,0.590454
574,0.6092
576,0.621881
578,0.634562
580,0.647243
582,0.659924
584,0.672605
586,0.685286
588,0.697968
590,0.710649
592,0.729946
594,0.740438
596,0.748692
598,0.761373
600,0.774054
602,0.792484
604,0.801995
606,0.811703
608,0.82227
610,0.836284
612,0.850141
614,0.864743
616,0.873816
618,0.878146
620,0.884486
622,0.890835
624,0.900346
626,0.907786
628,0.915184
630,0.922581
632,0.928192
634,0.933626
636,0.939061
638,0.943749
640,0.946919
642,0.950089
644,0.953259
646,0.955676
648,0.955676
650,0.955676
652,0.957114
654,0.959227
656,0.961341
658,0.958932
660,0.953649
662,0.948365
664,0.944964
666,0.943152
668,0.941341
670,0.939529
672,0.936411
674,0.933241
676,0.93007
678,0.922655
680,0.91473
682,0.905999
684,0.897122
686,0.889589
688,0.885362
690,0.877946
692,0.869259
694,0.858292
696,0.841384
698,0.827276
700,0.814595
702,0.798005
704,0.782746
706,0.769319
708,0.744411
710,0.73173
712,0.719049
714,0.681159
716,0.654022
718,0.642832
720,0.628324
722,0.605076
724,0.570459
726,0.542746
728,0.516281
730,0.494649
732,0.473373
734,0.450662
736,0.431438
738,0.402443
740,0.389649
742,0.378984
744,0.362076
746,0.335973
748,0.316413
750,0.305
752,0.293535
754,0.280854
756,0.263357
758,0.245762
760,0.233081
762,0.2204
764,0.207719
766,0.196141
768,0.186277
770,0.176856
772,0.171924
774,0.166993
776,0.161368
778,0.155555
780,0.149743
782,0.142412
784,0.134486
786,0.12848
788,0.123408
790,0.118627
792,0.116091
794,0.113555
796,0.108897
798,0.10264
799,0.101281

File: ECP-magenta.txt
Wavelength (nm),Absorbance
400,0.152486
402,0.156408
404,0.161244
406,0.166308
408,0.171372
410,0.176436
412,0.1815
414,0.186646
416,0.191935
418,0.197225
420,0.202515
422,0.207804
424,0.21362
426,0.221431
428,0.229243
430,0.237055
432,0.244866
434,0.252997
436,0.261172
438,0.269348
440,0.27757
442,0.287715
444,0.297861
446,0.308006
448,0.318787
450,0.330474
452,0.34216
454,0.354917
456,0.368004
458,0.381091
460,0.394482
462,0.407917
464,0.421803
466,0.435874
468,0.449946
470,0.464058
472,0.478251
474,0.492444
476,0.506836
478,0.52147
480,0.536162
482,0.552168
484,0.568173
486,0.586443
488,0.605034
490,0.622829
492,0.637916
494,0.651983
496,0.663686
498,0.675389
500,0.687092
502,0.698795
504,0.708503
506,0.716108
508,0.723714
510,0.731319
512,0.740457
514,0.749812
516,0.759167
518,0.768522
520,0.781986
522,0.795552
524,0.809608
526,0.82448
528,0.83876
530,0.846984
532,0.855209
534,0.863433
536,0.866291
538,0.859503
540,0.852715
542,0.845927
544,0.839138
546,0.83235
548,0.816269
550,0.793452
552,0.77267
554,0.754778
556,0.739237
558,0.73088
560,0.722523
562,0.714166
564,0.718103
566,0.724812
568,0.731521
570,0.73823
572,0.74597
574,0.754579
576,0.763188
578,0.768523
580,0.765955
582,0.763387
584,0.76082
586,0.758252
588,0.746512
590,0.718311
592,0.688642
594,0.653884
596,0.617659
598,0.566846
600,0.515925
602,0.43132
604,0.390044
606,0.336965
608,0.282917
610,0.234998
612,0.192369
614,0.16081
616,0.139184
618,0.117198
620,0.0951791
622,0.0859119
624,0.0768035
626,0.0676952
628,0.0590667
630,0.0562969
632,0.0535271
634,0.0507572
636,0.0479874
638,0.0452176
640,0.0433947
642,0.0422059
644,0.0410172
646,0.0398284
648,0.0386396
650,0.0376464
652,0.0371037
654,0.036561
656,0.0360183
658,0.0354756
660,0.0349334
662,0.0344683
664,0.0340031
666,0.0335379
668,0.0330728
670,0.0326076
672,0.0323443
674,0.0321634
676,0.0319825
678,0.0318016
680,0.0316207
682,0.0314398
684,0.0312589
686,0.031078
688,0.0308971
690,0.0307162
692,0.0305201
694,0.03021
696,0.0298999
698,0.0295898
700,0.0292796
702,0.0289695
704,0.0289142
706,0.0289142
708,0.0289142
710,0.0289142
712,0.0289142
714,0.0289142
716,0.0289142
718,0.0289142
720,0.0289142
722,0.0289142
724,0.0289142
726,0.0289142
728,0.0289142
730,0.0289142
732,0.0289142
734,0.0289142
736,0.029083
738,0.0292639
740,0.0294448
742,0.0296257
744,0.0298066
746,0.0301191
748,0.0305068
750,0.0308944
752,0.031282
754,0.0316697
756,0.0319341
758,0.03196
760,0.0319858
762,0.0320117
764,0.0320375
766,0.0320862
768,0.0326289
770,0.0331716
772,0.0337143
774,0.034257
776,0.0347997
778,0.0349558
780,0.0349816
782,0.0350075
784,0.0350333
786,0.0350592
788,0.0351901
790,0.0354485
792,0.035707
794,0.0359654
796,0.0362238
798,0.0364541
799,0.0364928

File: ECP-orange.txt
Wavelength (nm),Absorbance
320,0.263522
322,0.260463
324,0.257926
326,0.255397
328,0.253283
330,0.251168
332,0.249054
334,0.254832
336,0.259404
338,0.261216
340,0.263028
342,0.26484
344,0.269235
346,0.274309
348,0.279943
350,0.287554
352,0.295165
354,0.302982
356,0.31091
358,0.317897
360,0.324239
362,0.330611
364,0.338222
366,0.345833
368,0.354304
370,0.363818
372,0.37375
374,0.384321
376,0.399402
378,0.412641
380,0.425326
382,0.435573
384,0.445087
386,0.456859
388,0.470261
390,0.487174
392,0.50044
394,0.511539
396,0.52475
398,0.539633
400,0.557391
402,0.576092
404,0.594211
406,0.608708
408,0.62375
410,0.638424
412,0.651109
414,0.66906
416,0.684696
418,0.700592
420,0.717663
422,0.728234
424,0.740261
426,0.752946
428,0.76563
430,0.778505
432,0.793304
434,0.805788
436,0.816361
438,0.827461
440,0.83856
442,0.849659
444,0.860758
446,0.866483
448,0.871557
450,0.877038
452,0.88338
454,0.889443
456,0.894728
458,0.900014
460,0.904918
462,0.90809
464,0.910981
466,0.911887
468,0.912793
470,0.9137
472,0.912135
474,0.908329
476,0.904524
478,0.901928
480,0.899391
482,0.895883
484,0.890809
486,0.885735
488,0.87757
490,0.86869
492,0.860424
494,0.854082
496,0.846565
498,0.83388
500,0.82038
502,0.801353
504,0.781087
506,0.759761
508,0.734522
510,0.717609
512,0.701839
514,0.687342
516,0.674065
518,0.644147
520,0.627255
522,0.616156
524,0.598576
526,0.58013
528,0.563217
530,0.540109
532,0.514739
534,0.489298
536,0.469674
538,0.445821
540,0.407473
542,0.391152
544,0.365391
546,0.332236
548,0.310038
550,0.261957
552,0.225357
554,0.207223
556,0.192424
558,0.164359
560,0.132826
562,0.115913
564,0.099
566,0.0838837
568,0.0750043
570,0.066125
572,0.0533804
574,0.0396565
576,0.0345826
578,0.0295087
580,0.02375
582,0.0174076
584,0.0129043
586,0.0103674
588,0.00783043
590,0.0076087
592,0.0076087
594,0.0076087
596,0.0076087
598,0.0076087
600,0.0076087
602,0.0076087
604,0.0076087
606,0.0069868
608,0.00608075
610,0.00517469
612,0.00442702
614,0.00533307
616,0.00623913
618,0.00714519
620,0.0076087
622,0.0076087
624,0.0076087
626,0.0076087
628,0.00790625
630,0.00869905
632,0.00949185
634,0.0102846
636,0.0108696
638,0.0108696
640,0.0108696
642,0.0108696
644,0.0108696
646,0.0108696
648,0.0108696
650,0.0108696
652,0.0108696
654,0.0108696
656,0.0108696
658,0.0108696
660,0.0108696
662,0.0108696
664,0.0108696
666,0.0108696
668,0.0103864
670,0.00980978
672,0.0092332
674,0.00865662
676,0.00808004
678,0.0076087
680,0.0076087
682,0.0076087
684,0.0076087
686,0.0076087
688,0.0076087
690,0.0076087
692,0.0076087
694,0.00794022
696,0.00864493
698,0.00934964
700,0.0100543
702,0.0107591
704,0.00552174
706,0.00108696
708,0.00108696
710,0.00130823
712,0.00221429
714,0.00312034
716,0.0040264
718,0.00525725
720,0.00666667
722,0.00807609
724,0.00948551
726,0.0108696
728,0.0108696
730,0.0108696
732,0.0108696
734,0.0108696
736,0.0108696
738,0.0108696
740,0.0108696
742,0.0108696
744,0.0108696
746,0.0108696
748,0.0108696
750,0.0107337
752,0.010029
754,0.00932428
756,0.00861957
758,0.00791486
760,0.00800725
762,0.00871196
764,0.00941667
766,0.0101214
768,0.0108261
770,0.0108696
772,0.0108696
774,0.0108696
776,0.0108696
778,0.0108696
780,0.0107316
782,0.0102437
784,0.00975585
786,0.00926798
788,0.0087801
790,0.00829222
792,0.00780435
794,0.008875
796,0.0108696
798,0.0108696
799,0.0108696

File: ECP-yellow.csv
Wavelength (nm),Absorbance
320,0.163451
322,0.160882
324,0.158313
326,0.155744
328,0.153174
330,0.152409
332,0.152686
334,0.152962
336,0.153239
338,0.153515
340,0.154707
342,0.158774
344,0.16284
346,0.166907
348,0.170974
350,0.174603
352,0.178177
354,0.181751
356,0.185244
358,0.188577
360,0.19191
362,0.199635
364,0.207652
366,0.21363
368,0.218987
370,0.224477
372,0.232441
374,0.240404
376,0.248368
378,0.256366
380,0.267798
382,0.27923
384,0.290662
386,0.3026
388,0.31486
390,0.32712
392,0.340729
394,0.355322
396,0.369914
398,0.386914
400,0.404996
402,0.424132
404,0.443553
406,0.464027
408,0.48497
410,0.506636
412,0.527879
414,0.54898
416,0.57139
418,0.593873
420,0.617027
422,0.639046
424,0.659446
426,0.680645
428,0.702143
430,0.722231
432,0.741971
434,0.76017
436,0.77815
438,0.795945
440,0.813662
442,0.828567
444,0.843473
446,0.857008
448,0.86969
450,0.882371
452,0.894169
454,0.905634
456,0.915273
458,0.921026
460,0.926779
462,0.932532
464,0.938285
466,0.941609
468,0.938171
470,0.934734
472,0.931296
474,0.927859
476,0.920231
478,0.910724
480,0.901216
482,0.891579
484,0.880441
486,0.869303
488,0.857571
490,0.843312
492,0.829053
494,0.812274
496,0.794798
498,0.773879
500,0.750817
502,0.731649
504,0.706967
506,0.666238
508,0.630917
510,0.601583
512,0.562495
514,0.519377
516,0.471207
518,0.43287
520,0.394716
522,0.361748
524,0.322092
526,0.289857
528,0.258665
530,0.231028
532,0.20717
534,0.185907
536,0.16549
538,0.151481
540,0.137472
542,0.127467
544,0.119102
546,0.110737
548,0.102373
550,0.0980343
552,0.0943646
554,0.090695
556,0.0870253
558,0.0833556
560,0.0807302
562,0.078921
564,0.0771118
566,0.0753026
568,0.0734934
570,0.0721905
572,0.0710692
574,0.0699478
576,0.0688265
578,0.0677051
580,0.0669079
582,0.0661345
584,0.065361
586,0.0645875
588,0.063814
590,0.0631254
592,0.0624972
594,0.061869
596,0.0612408
598,0.0606254
600,0.0601131
602,0.0596009
604,0.0590887
606,0.0585765
608,0.0580681
610,0.0581887
612,0.0583093
614,0.0584299
616,0.0585505
618,0.0586711
620,0.0581414
622,0.0573459
624,0.0565503
626,0.0557548
628,0.0552226
630,0.0548895
632,0.0545565
634,0.0542235
636,0.0539683
638,0.0539683
640,0.0539683
642,0.0539683
644,0.0520531
646,0.0492375
648,0.0464219
650,0.0476713
652,0.0509793
654,0.0539236
656,0.0534602
658,0.0529968
660,0.0525334
662,0.05207
664,0.0520587
666,0.0520551
668,0.0520515
670,0.0520479
672,0.051986
674,0.0517276
676,0.0514691
678,0.0512107
680,0.0509523
682,0.0506939
684,0.0504694
686,0.0502475
688,0.0500255
690,0.0498036
692,0.0495816
694,0.0493471
696,0.0491036
698,0.0488602
700,0.0486168
702,0.0483734
704,0.048452
706,0.0491552
708,0.0498584
710,0.0505616
712,0.0513923
714,0.0522857
716,0.0531791
718,0.0539683
720,0.0539683
722,0.0539683
724,0.0540794
726,0.0556429
728,0.0571429
730,0.0571429
732,0.0571429
734,0.0571429
736,0.0571429
738,0.0571429
740,0.0571429
742,0.0571429
744,0.0571429
746,0.0566205
748,0.0560519
750,0.0554834
752,0.0549149
754,0.0543463
756,0.0539683
758,0.0539683
760,0.0539683
762,0.0546427
764,0.0554889
766,0.0563351
768,0.0571813
770,0.0577214
772,0.0580574
774,0.0583933
776,0.0587293
778,0.0590653
780,0.0593189
782,0.0593839
784,0.0594489
786,0.0595139
788,0.0595788
790,0.0596942
792,0.0599622
794,0.0602303
796,0.0604983
798,0.0604831
799,0.0604557