Folder: Polymer_electronics_multimodal_database/conjugated_ECPs/uv_vis_automated/Polymer Chemistry, 11, 2173 – 2181, 2020/metadata

Note: conjugated_ECPs/README.md
The files are organized as following:

File: P(BAcDOT).txt
Wavelength (nm),Absorbance
360,0.254298
362,0.262134
364,0.270727
366,0.280477
368,0.290862
370,0.302297
372,0.314908
374,0.327772
376,0.340865
378,0.355079
380,0.370896
382,0.386616
384,0.403148
386,0.419752
388,0.439476
390,0.456471
392,0.475256
394,0.498335
396,0.515756
398,0.536164
400,0.558384
402,0.578584
404,0.600511
406,0.623054
408,0.643861
410,0.664285
412,0.685911
414,0.707566
416,0.727212
418,0.746062
420,0.763743
422,0.785225
424,0.802862
426,0.819354
428,0.836717
430,0.851748
432,0.866353
434,0.881456
436,0.894221
438,0.906037
440,0.918448
442,0.931549
444,0.940333
446,0.949654
448,0.959933
450,0.967148
452,0.97412
454,0.980252
456,0.986354
458,0.990543
460,0.994275
462,0.996026
464,0.996707
466,0.995796
468,0.993235
470,0.989412
472,0.983066
474,0.97582
476,0.967052
478,0.955206
480,0.941689
482,0.927892
484,0.91359
486,0.897824
488,0.881709
490,0.864548
492,0.84701
494,0.829783
496,0.810122
498,0.792904
500,0.772764
502,0.752405
504,0.735526
506,0.715854
508,0.697343
510,0.675229
512,0.658177
514,0.637726
516,0.616823
518,0.59474
520,0.575266
522,0.55479
524,0.535479
526,0.516452
528,0.496594
530,0.47697
532,0.458277
534,0.440018
536,0.420723
538,0.402671
540,0.384006
542,0.365224
544,0.345297
546,0.327234
548,0.307265
550,0.287088
552,0.266512
554,0.246713
556,0.226037
558,0.205201
560,0.185536
562,0.166323
564,0.147549
566,0.130128
568,0.114103
570,0.0977198
572,0.0842328
574,0.0714978
576,0.0615222
578,0.0527424
580,0.0453491
582,0.0383974
584,0.0329221
586,0.0275573
588,0.0236075
590,0.0196577
592,0.0169287
594,0.0143136
596,0.0122964
598,0.0104713
600,0.00923364
602,0.00838919
604,0.00754475
606,0.00670031
608,0.0060411
610,0.00585042
612,0.00552639
614,0.00427335
616,0.0030203
618,0.00284803
620,0.00271183
622,0.00268593
624,0.00268593
626,0.00268593
628,0.00268593
630,0.00268593
632,0.00268593
634,0.002411
636,0.0015938
638,0.00090796
640,0.000826239
642,0.000746218
644,0.000746218
646,0.000746218
648,0.000746218
650,0.000746218
652,0.000746218
654,0.000746218
656,0.000776037
658,0.000830517
660,0.000884997
662,0.000939477
664,0.00115805
666,0.00192078
668,0.00262916
670,0.0026564
672,0.00268365
674,0.00268593
676,0.00268593
678,0.00268593
680,0.00268593
682,0.00325837
684,0.00421178
686,0.00498433
688,0.00552914
690,0.00591103
692,0.00588379
694,0.00594993
696,0.00665817
698,0.00736642
700,0.00759947
702,0.00781739
704,0.0078585
706,0.0078585
708,0.00844596
710,0.00934488
712,0.00994674
714,0.0102464
716,0.0104632
718,0.0105177
720,0.0109044
722,0.0128043
724,0.0147042
726,0.0151631
728,0.015455
730,0.0155373
732,0.0166559
734,0.018441
736,0.020226
738,0.0210526
740,0.0210526
742,0.0210517
744,0.0210449
746,0.0210381
748,0.0210313
750,0.0210579
752,0.0214937
754,0.0219296
756,0.0222404
758,0.0225401
760,0.0227569
762,0.0229476
764,0.0230071
766,0.0229799
768,0.0230494
770,0.0232401
772,0.023462
774,0.0237616
776,0.0240822
778,0.0245453
779,0.0247769

File: P(BAcDOT-DMP).txt
Wavelength (nm),Absorbance
360,0.104996
362,0.107972
364,0.111355
366,0.114606
368,0.116903
370,0.1192
372,0.121926
374,0.124668
376,0.127783
378,0.130989
380,0.134476
382,0.138117
384,0.142079
386,0.146373
388,0.150634
390,0.154824
392,0.159021
394,0.163248
396,0.167472
398,0.171577
400,0.175681
402,0.180705
404,0.18588
406,0.191205
408,0.196593
410,0.201854
412,0.207008
414,0.212327
416,0.217911
418,0.223842
420,0.230559
422,0.237206
424,0.243794
426,0.251265
428,0.260046
430,0.266468
432,0.271653
434,0.28468
436,0.29314
438,0.298067
440,0.311507
442,0.321516
444,0.326956
446,0.341163
448,0.351584
450,0.362093
452,0.37344
454,0.386171
456,0.399764
458,0.416163
460,0.427932
462,0.444261
464,0.458331
466,0.474351
468,0.490349
470,0.504449
472,0.519835
474,0.534571
476,0.549343
478,0.563338
480,0.580821
482,0.595181
484,0.611719
486,0.629883
488,0.651344
490,0.669885
492,0.688713
494,0.709656
496,0.728128
498,0.745183
500,0.766121
502,0.773877
504,0.794133
506,0.806119
508,0.819927
510,0.826894
512,0.833841
514,0.840219
516,0.846597
518,0.853343
520,0.860184
522,0.869371
524,0.879642
526,0.891531
528,0.907292
530,0.92406
532,0.937974
534,0.95034
536,0.964628
538,0.977968
540,0.987539
542,0.996605
544,0.99749
546,0.996894
548,0.990419
550,0.983182
552,0.975416
554,0.967538
556,0.95966
558,0.947732
560,0.933274
562,0.903692
564,0.890324
566,0.881758
568,0.875042
570,0.872808
572,0.870892
574,0.871025
576,0.882809
578,0.895111
580,0.907063
582,0.918844
584,0.931068
586,0.943942
588,0.947791
590,0.95164
592,0.95163
594,0.948089
596,0.940045
598,0.924387
600,0.905171
602,0.884041
604,0.86169
606,0.808332
608,0.751562
610,0.693024
612,0.612843
614,0.542348
616,0.483622
618,0.406605
620,0.350157
622,0.290509
624,0.233815
626,0.179778
628,0.139708
630,0.118848
632,0.103755
634,0.0899373
636,0.0761193
638,0.0667662
640,0.0596222
642,0.0553142
644,0.0516913
646,0.0489151
648,0.0465997
650,0.0441108
652,0.0414413
654,0.0391335
656,0.0375536
658,0.0362109
660,0.035993
662,0.0357684
664,0.0351419
666,0.0345153
668,0.0332812
670,0.0319469
672,0.0306017
674,0.0292533
676,0.0306003
678,0.0310548
680,0.0299561
682,0.0289474
684,0.0289474
686,0.0289474
688,0.0304561
690,0.0326535
692,0.0342105
694,0.0342105
696,0.0342105
698,0.0340493
700,0.0324013
702,0.0307533
704,0.0291053
706,0.0289474
708,0.0289474
710,0.0289474
712,0.0289474
714,0.0289474
716,0.0289474
718,0.0289474
720,0.0289474
722,0.0289474
724,0.0289474
726,0.0289474
728,0.0286818
730,0.0278705
732,0.0270593
734,0.0267143
736,0.0269509
738,0.0271875
740,0.0270922
742,0.0269833
744,0.0264808
746,0.0258816
748,0.0270836
750,0.0292787
752,0.0314738
754,0.0321622
756,0.0327748
758,0.0333874
760,0.0339999
762,0.0341746
764,0.034338
766,0.0319724
768,0.029041
770,0.0289474
772,0.0289474
774,0.0289474
776,0.0289474
778,0.0303103
779,0.0314916

File: P(LAcDOT).csv
Wavelength (nm),Absorbance
360,0.0815789
362,0.0826882
364,0.0846658
366,0.0866434
368,0.0886211
370,0.0894737
372,0.0894737
374,0.0937456
376,0.0981404
378,0.1
380,0.1
382,0.1
384,0.102947
386,0.106714
388,0.110481
390,0.114868
392,0.119263
394,0.121704
396,0.122803
398,0.124173
400,0.126645
402,0.129117
404,0.13159
406,0.134415
408,0.137241
410,0.14051
412,0.145454
414,0.148984
416,0.151621
418,0.154439
420,0.157368
422,0.160298
424,0.163271
426,0.167979
428,0.172688
430,0.177829
432,0.184421
434,0.190179
436,0.195453
438,0.202265
440,0.209956
442,0.217382
444,0.223974
446,0.230335
448,0.235985
450,0.241635
452,0.247711
454,0.254303
456,0.262895
458,0.276993
460,0.293509
462,0.303447
464,0.316632
466,0.328355
468,0.345333
470,0.354123
472,0.366737
474,0.378118
476,0.384711
478,0.394276
480,0.403158
482,0.411605
484,0.424789
486,0.434589
488,0.443456
490,0.458838
492,0.483395
494,0.501882
496,0.519579
498,0.559838
500,0.596053
502,0.624059
504,0.645276
506,0.6568125
508,0.680013
510,0.68725
512,0.688568
514,0.689474
516,0.689474
518,0.687382
520,0.684211
522,0.684211
524,0.682691
526,0.683295
528,0.688568
530,0.729145
532,0.748211
534,0.764513
536,0.818175
538,0.835754
540,0.889868
542,0.916533
544,0.940632
546,0.957184
548,0.986013
550,0.989309
552,0.992605
554,0.988914
556,0.963737
558,0.936421
560,0.873158
562,0.806013
564,0.764579
566,0.737625
568,0.699316
570,0.674671
572,0.6515
574,0.642447
576,0.637825
578,0.640572
580,0.673658
582,0.688161
584,0.693912
586,0.718083
588,0.751079
590,0.780033
592,0.819447
594,0.845934
596,0.876037
598,0.879992
600,0.873684
602,0.849947
604,0.818211
606,0.714296
608,0.628632
610,0.575395
612,0.502
614,0.439013
616,0.382509
618,0.345947
620,0.283158
622,0.239559
624,0.203368
626,0.178263
628,0.154145
630,0.140493
632,0.12714
634,0.109855
636,0.0942632
638,0.0812664
640,0.0730263
642,0.0640592
644,0.0573487
646,0.0525811
648,0.0514825
650,0.0503838
652,0.05
654,0.05
656,0.05
658,0.05
660,0.0495113
662,0.0476278
664,0.0457444
666,0.0443536
668,0.0435296
670,0.0427056
672,0.0419263
674,0.0412671
676,0.0406079
678,0.0399487
680,0.0394737
682,0.0394737
684,0.0394737
686,0.0394737
688,0.0394737
690,0.0391155
692,0.038383
694,0.0376506
696,0.0369181
698,0.0368421
700,0.0368421
702,0.0368421
704,0.0368421
706,0.0368421
708,0.0368421
710,0.0368421
712,0.0368421
714,0.0368421
716,0.0348233
718,0.0319981
720,0.0291729
722,0.0289474
724,0.0292519
726,0.0301936
728,0.0311353
730,0.0315789
732,0.0315789
734,0.0315789
736,0.0315789
738,0.0315789
740,0.0315789
742,0.0315789
744,0.0315789
746,0.0315789
748,0.0314263
750,0.0309868
752,0.0305474
754,0.0301079
756,0.0296684
758,0.0292289
760,0.0289474
762,0.0289474
764,0.0289474
766,0.0289474
768,0.0289474
770,0.0289474
772,0.0289474
774,0.0289474
776,0.0289474
778,0.0289474
779,0.0289474

File: P(LAcDOT-BAcDOT).csv
Wavelength (nm),Absorbance
360,0.140518
362,0.143804
364,0.147345
366,0.150922
368,0.154763
370,0.158604
372,0.162943
374,0.167302
376,0.171515
378,0.175694
380,0.180494
382,0.185631
384,0.190787
386,0.195963
388,0.201184
390,0.206496
392,0.211917
394,0.217855
396,0.2238
398,0.230167
400,0.236534
402,0.243578
404,0.250652
406,0.258146
408,0.265688
410,0.273211
412,0.280976
414,0.289157
416,0.297315
418,0.305501
420,0.314851
422,0.324271
424,0.333813
426,0.343845
428,0.35383
430,0.363816
432,0.374377
434,0.385697
436,0.397236
438,0.408801
440,0.42064
442,0.433733
444,0.446914
446,0.459639
448,0.474383
450,0.488128
452,0.501919
454,0.517267
456,0.533622
458,0.547512
460,0.561619
462,0.576772
464,0.589729
466,0.602875
468,0.618895
470,0.633029
472,0.646103
474,0.660346
476,0.675489
478,0.689128
480,0.705559
482,0.723856
484,0.739644
486,0.755026
488,0.771711
490,0.785278
492,0.798371
494,0.809949
496,0.819494
498,0.82904
500,0.837122
502,0.843224
504,0.849129
506,0.854496
508,0.860003
510,0.866658
512,0.874177
514,0.884348
516,0.895487
518,0.908069
520,0.922519
522,0.937655
524,0.951631
526,0.964119
528,0.975391
530,0.984047
532,0.990884
534,0.99418
536,0.996794
538,0.996338
540,0.988933
542,0.979882
544,0.968667
546,0.953949
548,0.936871
550,0.920045
552,0.904007
554,0.887253
556,0.880229
558,0.873206
560,0.874815
562,0.878436
564,0.893651
566,0.903096
568,0.915822
570,0.932112
572,0.945775
574,0.956461
576,0.966102
578,0.97321
580,0.977642
582,0.978362
584,0.974088
586,0.967025
588,0.947417
590,0.918644
592,0.887759
594,0.83375
596,0.77555
598,0.713449
600,0.638601
602,0.550224
604,0.477666
606,0.412271
608,0.354582
610,0.302037
612,0.260425
614,0.221552
616,0.190478
618,0.169135
620,0.152683
622,0.1381
624,0.125739
626,0.115365
628,0.106819
630,0.0991324
632,0.093467
634,0.0878016
636,0.0821363
638,0.0773499
640,0.0736954
642,0.0700409
644,0.06667
646,0.0635855
648,0.0606672
650,0.0581883
652,0.0557508
654,0.0536261
656,0.0515014
658,0.0498912
660,0.0478519
662,0.0453384
664,0.042825
666,0.0403115
668,0.0394737
670,0.0394737
672,0.0394737
674,0.0391272
676,0.0383947
678,0.0376623
680,0.0369298
682,0.0361974
684,0.0354649
686,0.0347325
688,0.0335789
690,0.0313816
692,0.0291842
694,0.0260706
696,0.0233612
698,0.0236609
700,0.0239605
702,0.0232102
704,0.0224475
706,0.0215993
708,0.020744
710,0.0200377
712,0.0193314
714,0.01881
716,0.0186837
718,0.0185574
720,0.0184311
722,0.0184211
724,0.0184211
726,0.0184211
728,0.0184211
730,0.0184211
732,0.0184211
734,0.0184211
736,0.0184211
738,0.0184211
740,0.0184211
742,0.0184211
744,0.0184211
746,0.0184211
748,0.0184211
750,0.0184211
752,0.0184211
754,0.0184211
756,0.0184211
758,0.0184211
760,0.0184211
762,0.0184211
764,0.0184211
766,0.0184211
768,0.0184211
770,0.0184211
772,0.0184211
774,0.0184211
776,0.0184211
778,0.0184211
779,0.0184211

File: P(LAcDOT-DMP).csv
Wavelength (nm),Absorbance
360,0.0958553
362,0.1
364,0.1
366,0.1
368,0.1
370,0.103829
372,0.107784
374,0.110031
376,0.112228
378,0.113158
380,0.116365
382,0.120485
384,0.124605
386,0.127858
388,0.130495
390,0.134906
392,0.140556
394,0.146207
396,0.149114
398,0.151311
400,0.153509
402,0.156371
404,0.161864
406,0.167357
408,0.173737
410,0.179776
412,0.183732
414,0.18825
416,0.194842
418,0.201434
420,0.208004
422,0.213498
424,0.218991
426,0.22723
428,0.233487
430,0.23898
432,0.246368
434,0.254171
436,0.261474
438,0.276649
440,0.289649
442,0.294044
444,0.307013
446,0.314776
448,0.321368
450,0.331168
452,0.342961
454,0.357352
456,0.365592
458,0.375636
460,0.387632
462,0.405045
464,0.414274
466,0.425719
468,0.442851
470,0.453838
472,0.471842
474,0.482829
476,0.493272
478,0.508654
480,0.524605
482,0.536141
484,0.553737
486,0.566921
488,0.587614
490,0.596404
492,0.617605
494,0.631294
496,0.646632
498,0.663346
500,0.680921
502,0.697398
504,0.713495
506,0.731852
508,0.74998
510,0.768498
512,0.786053
514,0.8015
516,0.814684
518,0.824245
520,0.833474
522,0.839602
524,0.845281
526,0.849675
528,0.85407
530,0.857664
532,0.861147
534,0.865855
536,0.870564
538,0.876861
540,0.886278
542,0.902955
544,0.918853
546,0.936333
548,0.951616
550,0.962664
552,0.972553
554,0.982441
556,0.989586
558,0.99453
560,0.994737
562,0.994737
564,0.991026
566,0.980822
568,0.967145
570,0.955609
572,0.939719
574,0.912237
576,0.895544
578,0.869072
580,0.851711
582,0.833191
584,0.821193
586,0.810711
588,0.797526
590,0.794737
592,0.794737
594,0.802572
596,0.825618
598,0.835507
600,0.843421
602,0.850009
604,0.854404
606,0.862333
608,0.863389
610,0.859434
612,0.851855
614,0.843306
616,0.833289
618,0.815345
620,0.786645
622,0.729757
624,0.699947
626,0.633526
628,0.587987
630,0.554276
632,0.481158
634,0.447987
636,0.410974
638,0.374125
640,0.343158
642,0.301759
644,0.264053
646,0.243053
648,0.221921
650,0.186184
652,0.174243
654,0.166003
656,0.143737
658,0.131007
660,0.116842
662,0.107324
664,0.0980947
666,0.089148
668,0.0842039
670,0.0790022
672,0.0735088
674,0.0679342
676,0.0613421
678,0.0549553
680,0.051
682,0.0462895
684,0.0409803
686,0.0392312
688,0.036406
690,0.0335808
692,0.0310301
694,0.0291466
696,0.0272632
698,0.0252237
700,0.0230263
702,0.0208289
704,0.0186316
706,0.0158665
708,0.0130414
710,0.0105263
712,0.0105263
714,0.0105263
716,0.0105263
718,0.0105263
720,0.0102632
722,0.00943914
724,0.00861513
726,0.00789474
728,0.00789474
730,0.00789474
732,0.00789474
734,0.00738268
736,0.00683333
738,0.00628399
740,0.00573465
742,0.00518531
744,0.00463596
746,0.00408662
748,0.00353728
750,0.00298794
752,0.00288889
754,0.00362135
756,0.0043538
758,0.00508626
760,0.00526316
762,0.00526316
764,0.00526316
766,0.00526316
768,0.00526316
770,0.00477227
772,0.00426518
774,0.0037581
776,0.00325101
778,0.00274393
779,0.00263158