Folder: Polymer_electronics_multimodal_database/conjugated_ECPs/uv_vis_automated/J. Mat. Chem C, 3, 3211-3218, 2015/metadata

Note: conjugated_ECPs/README.md
The files are organized as following:

File: AcDOT2-EDOT2.txt
Wavelength (nm),Absorbance
360,0.137036
362,0.137601
364,0.138335
366,0.13983
368,0.141324
370,0.142818
372,0.144313
374,0.147246
376,0.151025
378,0.154805
380,0.158585
382,0.16205
384,0.164601
386,0.167151
388,0.169702
390,0.172419
392,0.17731
394,0.182201
396,0.187093
398,0.191984
400,0.196164
402,0.200039
404,0.203914
406,0.20779
408,0.212772
410,0.218157
412,0.223542
414,0.228927
416,0.234773
418,0.240875
420,0.246978
422,0.253341
424,0.260914
426,0.268486
428,0.276058
430,0.283837
432,0.291705
434,0.299573
436,0.307589
438,0.318559
440,0.329528
442,0.338667
444,0.347639
446,0.356645
448,0.368552
450,0.380459
452,0.392171
454,0.403501
456,0.41477
458,0.425731
460,0.436692
462,0.448635
464,0.46138
466,0.47481
468,0.489749
470,0.504571
472,0.517898
474,0.531226
476,0.547389
478,0.564112
480,0.577025
482,0.589968
484,0.604165
486,0.618758
488,0.634609
490,0.65071
492,0.667229
494,0.683139
496,0.697768
498,0.712474
500,0.728029
502,0.743584
504,0.758833
506,0.773524
508,0.785705
510,0.797887
512,0.812485
514,0.827457
516,0.839671
518,0.851497
520,0.863194
522,0.874796
524,0.886398
526,0.89639
528,0.906076
530,0.916032
532,0.927122
534,0.938212
536,0.947357
538,0.956484
540,0.965611
542,0.973056
544,0.978956
546,0.984856
548,0.990755
550,0.995343
552,0.996192
554,0.997041
556,0.997891
558,0.99874
560,0.996747
562,0.994633
564,0.992519
566,0.989501
568,0.985034
570,0.980567
572,0.9761
574,0.971694
576,0.970024
578,0.968354
580,0.966684
582,0.964553
584,0.96108
586,0.957607
588,0.953238
590,0.948511
592,0.943784
594,0.936566
596,0.926282
598,0.915676
600,0.901786
602,0.887326
604,0.872706
606,0.848397
608,0.832426
610,0.813015
612,0.789463
614,0.765449
616,0.738478
618,0.717208
620,0.682647
622,0.657983
624,0.632459
626,0.629634
628,0.596493
630,0.57421
632,0.562857
634,0.552246
636,0.541802
638,0.53157
640,0.521338
642,0.513743
644,0.50669
646,0.493833
648,0.476483
650,0.458776
652,0.444745
654,0.42925
656,0.40277
658,0.383341
660,0.359824
662,0.331593
664,0.301137
666,0.271935
668,0.24471
670,0.224897
672,0.213468
674,0.203472
676,0.191377
678,0.176522
680,0.156891
682,0.142244
684,0.133129
686,0.124013
688,0.116373
690,0.10962
692,0.102868
694,0.0963566
696,0.0902794
698,0.0842022
699,0.0811636

File: ACDOT2-ProDOT.txt
Wavelength (nm),Absorbance
400,0.176923
401,0.179448
402,0.181974
403,0.184123
404,0.186017
405,0.187911
406,0.189805
407,0.191699
408,0.193593
409,0.195879
410,0.199919
411,0.20396
412,0.207215
413,0.210245
414,0.213275
415,0.218036
416,0.224097
417,0.227225
418,0.230255
419,0.233285
420,0.236316
421,0.241285
422,0.246336
423,0.250686
424,0.254474
425,0.258262
426,0.261785
427,0.264816
428,0.267846
429,0.271164
430,0.276215
431,0.281265
432,0.284826
433,0.287856
434,0.290887
435,0.293917
436,0.298274
437,0.303122
438,0.307971
439,0.312819
440,0.318543
441,0.324364
442,0.328405
443,0.332445
444,0.335765
445,0.338796
446,0.341826
447,0.344856
448,0.347887
449,0.360503
450,0.371179
451,0.374967
452,0.378755
453,0.382757
454,0.388818
455,0.394879
456,0.39885
457,0.401881
458,0.407067
459,0.417673
460,0.423806
461,0.427846
462,0.432445
463,0.438506
464,0.444567
465,0.453647
466,0.463171
467,0.472351
468,0.47668
469,0.481009
470,0.486382
471,0.494715
472,0.503049
473,0.511587
474,0.523709
475,0.540992
476,0.556538
477,0.564114
478,0.574623
479,0.586745
480,0.597895
481,0.608501
482,0.619107
483,0.627614
484,0.638978
485,0.650342
486,0.647765
487,0.661907
488,0.676049
489,0.68603
490,0.695121
491,0.705482
492,0.717603
493,0.729852
494,0.748168
495,0.755744
496,0.761012
497,0.7648
498,0.768588
499,0.772986
500,0.778289
501,0.783593
502,0.789045
503,0.795105
504,0.801166
505,0.808026
506,0.815097
507,0.821074
508,0.825317
509,0.829559
510,0.833802
511,0.837585
512,0.840615
513,0.843646
514,0.846937
515,0.851483
516,0.856028
517,0.860574
518,0.870974
519,0.883229
520,0.898381
521,0.913532
522,0.902674
523,0.922371
524,0.936202
525,0.945294
526,0.948628
527,0.951658
528,0.954688
529,0.957719
530,0.968988
531,0.973028
532,0.977069
533,0.981109
534,0.985016
535,0.988047
536,0.989474
537,0.989474
538,0.989474
539,0.989474
540,0.989474
541,0.989474
542,0.989474
543,0.989474
544,0.982381
545,0.973289
546,0.964198
547,0.950462
548,0.942562
549,0.935289
550,0.927227
551,0.914337
552,0.906761
553,0.892863
554,0.876615
555,0.865815
556,0.858239
557,0.849621
558,0.840658
559,0.833082
560,0.827692
561,0.824662
562,0.823912
563,0.823479
564,0.823046
565,0.822613
566,0.82218
567,0.829939
568,0.845215
569,0.843194
570,0.842389
571,0.856262
572,0.857777
573,0.859293
574,0.860808
575,0.862323
576,0.863838
577,0.865353
578,0.875277
579,0.874671
580,0.874065
581,0.873459
582,0.872711
583,0.868165
584,0.863619
585,0.859074
586,0.848243
587,0.837837
588,0.833291
589,0.826543
590,0.818462
591,0.809498
592,0.793587
593,0.758534
594,0.717336
595,0.69415
596,0.680304
597,0.672728
598,0.64202
599,0.6292
600,0.521862
601,0.491547
602,0.467304
603,0.409863
604,0.402287
605,0.367692
606,0.359611
607,0.296941
608,0.267045
609,0.251893
610,0.237925
611,0.214775
612,0.202274
613,0.189774
614,0.177274
615,0.135403
616,0.122675
617,0.114445
618,0.106364
619,0.0982834
620,0.0834008
621,0.0766667
622,0.0699325
623,0.0631984
624,0.05583
625,0.0490073
626,0.0464432
627,0.043879
628,0.0413149
629,0.0387507
630,0.0361865
631,0.0352412
632,0.0343995
633,0.0335577
634,0.0327159
635,0.0318742
636,0.0310324
637,0.0301906
638,0.0295198
639,0.0289138
640,0.0283077
641,0.0277016
642,0.0275304
643,0.0274871
644,0.0271083
645,0.0267295
646,0.0263507
647,0.0259719
648,0.0255931
649,0.0252143
650,0.0248355
651,0.0244567
652,0.0240779
653,0.0236991
654,0.0233203
655,0.0229415
656,0.0226721
657,0.0226721
658,0.0226721
659,0.0226721
660,0.0226721
661,0.0226721
662,0.0226721
663,0.0228932
664,0.0231457
665,0.0233983
666,0.0236508
667,0.0238616
668,0.0234828
669,0.023104
670,0.0227252
671,0.0229977
672,0.0233765
673,0.0237553
674,0.0241341
675,0.0245129
676,0.0248917
677,0.0251012
678,0.0251012
679,0.0251012
680,0.0251012
681,0.0251012
682,0.0251012
683,0.0251012
684,0.0251012
685,0.0251012
686,0.0251012
687,0.0251012
688,0.0251012
689,0.0251012
690,0.0247874
691,0.0242824
692,0.0237773
693,0.0232723
694,0.0227672
695,0.0226721
696,0.0226721
697,0.0226721
698,0.0226721
699,0.0226721

File: ACDOT-EDOT.txt
Wavelength (nm),Absorbance
400,0.177987
401,0.180088
402,0.182188
403,0.184288
404,0.186388
405,0.188515
406,0.191024
407,0.193534
408,0.196044
409,0.198553
410,0.201063
411,0.203572
412,0.206082
413,0.208591
414,0.211101
415,0.213801
416,0.216677
417,0.219553
418,0.222428
419,0.225304
420,0.22818
421,0.231055
422,0.233963
423,0.237385
424,0.240807
425,0.244229
426,0.247651
427,0.251073
428,0.254495
429,0.257917
430,0.261611
431,0.265428
432,0.269246
433,0.273064
434,0.276881
435,0.280699
436,0.284714
437,0.289093
438,0.293473
439,0.297852
440,0.302232
441,0.306612
442,0.311343
443,0.316185
444,0.321028
445,0.32587
446,0.330713
447,0.335714
448,0.34085
449,0.345986
450,0.351122
451,0.356258
452,0.361586
453,0.366997
454,0.372409
455,0.37782
456,0.383414
457,0.38935
458,0.395285
459,0.401221
460,0.407157
461,0.413436
462,0.420024
463,0.426612
464,0.433199
465,0.439787
466,0.446375
467,0.452963
468,0.460008
469,0.467281
470,0.474554
471,0.481827
472,0.4891
473,0.496373
474,0.503646
475,0.511
476,0.518656
477,0.526312
478,0.533967
479,0.541623
480,0.549227
481,0.556777
482,0.564327
483,0.571877
484,0.579523
485,0.587188
486,0.594853
487,0.602626
488,0.610454
489,0.618282
490,0.626111
491,0.634974
492,0.64835
493,0.661652
494,0.669733
495,0.677814
496,0.688972
497,0.702103
498,0.71317
499,0.7162
500,0.719231
501,0.722261
502,0.72756
503,0.732863
504,0.738166
505,0.756063
506,0.759275
507,0.764064
508,0.77164
509,0.787526
510,0.797773
511,0.807874
512,0.816227
513,0.823298
514,0.830194
515,0.836255
516,0.842316
517,0.848377
518,0.852974
519,0.857519
520,0.862065
521,0.86661
522,0.871314
523,0.876869
524,0.882425
525,0.887981
526,0.893536
527,0.898742
528,0.903287
529,0.907833
530,0.912272
531,0.91606
532,0.919848
533,0.923636
534,0.930679
535,0.937951
536,0.945224
537,0.952497
538,0.956154
539,0.959521
540,0.962888
541,0.966255
542,0.969622
543,0.972989
544,0.976356
545,0.982358
546,0.989429
547,0.99468
548,0.995817
549,0.996953
550,0.99809
551,0.999226
552,1.00036
553,1.0015
554,1.00123
555,1.0008
556,1.00037
557,0.999934
558,0.999501
559,0.99781
560,0.992927
561,0.988043
562,0.983159
563,0.978332
564,0.973674
565,0.969016
566,0.964358
567,0.9597
568,0.955043
569,0.949699
570,0.943999
571,0.938299
572,0.932599
573,0.926899
574,0.92159
575,0.916371
576,0.911152
577,0.906566
578,0.902323
579,0.898081
580,0.893838
581,0.890025
582,0.886455
583,0.882884
584,0.879314
585,0.875743
586,0.872587
587,0.869642
588,0.866697
589,0.8642
590,0.861974
591,0.859749
592,0.857523
593,0.855297
594,0.850306
595,0.844479
596,0.838652
597,0.831647
598,0.824145
599,0.816877
600,0.809933
601,0.802989
602,0.795825
603,0.786924
604,0.778022
605,0.769154
606,0.760514
607,0.751874
608,0.742963
609,0.733619
610,0.724275
611,0.714931
612,0.681807
613,0.67016
614,0.658512
615,0.630643
616,0.620397
617,0.610151
618,0.588682
619,0.561127
620,0.535719
621,0.520825
622,0.510279
623,0.499715
624,0.482013
625,0.46462
626,0.44774
627,0.431484
628,0.416817
629,0.404529
630,0.387124
631,0.360814
632,0.347514
633,0.334303
634,0.321508
635,0.308713
636,0.296392
637,0.284102
638,0.273122
639,0.262696
640,0.252395
641,0.243304
642,0.234213
643,0.225293
644,0.217734
645,0.210175
646,0.202616
647,0.195365
648,0.188213
649,0.181062
650,0.173933
651,0.16757
652,0.161206
653,0.154842
654,0.148664
655,0.142916
656,0.137167
657,0.131419
658,0.125833
659,0.120891
660,0.115949
661,0.111006
662,0.106064
663,0.101122
664,0.0974273
665,0.0937532
666,0.0900791
667,0.0864051
668,0.082731
669,0.0790569
670,0.0765539
671,0.0746882
672,0.0728224
673,0.0709566
674,0.0690908
675,0.0672251
676,0.0653593
677,0.0634935
678,0.0616278
679,0.059762
680,0.0578962
681,0.0560304
682,0.0541647
683,0.0522989
684,0.050565
685,0.0494098
686,0.0482547
687,0.0470995
688,0.0459444
689,0.0447892
690,0.0436341
691,0.0424789
692,0.0413238
693,0.0401686
694,0.0399084
695,0.0398822
696,0.0398559
697,0.0398297
698,0.0398034
699,0.0397772

File: ACDOT-ProDOT.csv
Wavelength (nm),Absorbance
400,0.134109
401,0.135246
402,0.136382
403,0.137615
404,0.138914
405,0.140213
406,0.141511
407,0.14281
408,0.144109
409,0.146366
410,0.148639
411,0.150911
412,0.153184
413,0.155457
414,0.15773
415,0.15957
416,0.161085
417,0.1626
418,0.164115
419,0.165631
420,0.167146
421,0.168821
422,0.171346
423,0.173871
424,0.176397
425,0.178922
426,0.181491
427,0.184143
428,0.186795
429,0.189446
430,0.192098
431,0.194749
432,0.197401
433,0.200812
434,0.204275
435,0.207739
436,0.211202
437,0.214665
438,0.218316
439,0.222356
440,0.226397
441,0.230437
442,0.234478
443,0.23831
444,0.241947
445,0.245583
446,0.249219
447,0.254085
448,0.260146
449,0.266206
450,0.272267
451,0.27984
452,0.288931
453,0.295308
454,0.300659
455,0.304296
456,0.307932
457,0.311568
458,0.317188
459,0.327795
460,0.33668
461,0.344761
462,0.352563
463,0.359634
464,0.366704
465,0.371574
466,0.376119
467,0.380665
468,0.385211
469,0.390133
470,0.400739
471,0.410186
472,0.418267
473,0.426184
474,0.431235
475,0.436285
476,0.441336
477,0.446387
478,0.453907
479,0.469059
480,0.478866
481,0.485685
482,0.492503
483,0.499321
484,0.50614
485,0.512958
486,0.523757
487,0.541101
488,0.549182
489,0.557419
490,0.572571
491,0.588357
492,0.605024
493,0.617984
494,0.63032
495,0.643451
496,0.656583
497,0.665228
498,0.672804
499,0.68038
500,0.69251
501,0.707662
502,0.714749
503,0.72182
504,0.727842
505,0.733145
506,0.738448
507,0.74237
508,0.744102
509,0.745833
510,0.747565
511,0.749297
512,0.751028
513,0.753767
514,0.756798
515,0.759828
516,0.762858
517,0.766819
518,0.771062
519,0.775304
520,0.779547
521,0.79898
522,0.81016
523,0.820229
524,0.82932
525,0.84752
526,0.852421
527,0.856462
528,0.881134
529,0.896285
530,0.931417
531,0.957262
532,0.962565
533,0.967868
534,0.973004
535,0.977045
536,0.981085
537,0.985493
538,0.989527
539,0.98996
540,0.990393
541,0.990826
542,0.991259
543,0.991692
544,0.990737
545,0.988464
546,0.986191
547,0.983377
548,0.979336
549,0.975296
550,0.959109
551,0.948345
552,0.940769
553,0.930032
554,0.907636
555,0.888573
556,0.86736
557,0.853438
558,0.842194
559,0.824012
560,0.796356
561,0.78878
562,0.774785
563,0.764494
564,0.75904
565,0.753585
566,0.74813
567,0.744937
568,0.747968
569,0.750998
570,0.768877
571,0.776452
572,0.78749
573,0.79867
574,0.806899
575,0.81498
576,0.845377
577,0.854468
578,0.859715
579,0.864995
580,0.872571
581,0.880147
582,0.887595
583,0.891636
584,0.895676
585,0.908644
586,0.912747
587,0.913959
588,0.915171
589,0.916383
590,0.914109
591,0.911079
592,0.908049
593,0.905018
594,0.8707
595,0.877247
596,0.845279
597,0.837198
598,0.829077
599,0.810281
600,0.791498
601,0.734437
602,0.693154
603,0.639454
604,0.625818
605,0.581741
606,0.550162
607,0.528445
608,0.472745
609,0.444457
610,0.426275
611,0.291494
612,0.273312
613,0.251644
614,0.227401
615,0.209049
616,0.19366
617,0.183054
618,0.164328
619,0.146036
620,0.127854
621,0.111366
622,0.0985101
623,0.0863887
624,0.0765117
625,0.070754
626,0.0649964
627,0.0592387
628,0.0541077
629,0.0501682
630,0.0462287
631,0.0422893
632,0.0389474
633,0.0367828
634,0.0346183
635,0.0324537
636,0.0302892
637,0.0281246
638,0.0270418
639,0.0263684
640,0.025695
641,0.0250216
642,0.0243482
643,0.0236748
644,0.0230013
645,0.0226721
646,0.0226721
647,0.0226721
648,0.0226721
649,0.0226721
650,0.0226721
651,0.0226225
652,0.0221174
653,0.0216123
654,0.0211073
655,0.0206022
656,0.0200972
657,0.0195921
658,0.019087
659,0.0187849
660,0.0185094
661,0.0182339
662,0.0179584
663,0.0176829
664,0.0174074
665,0.0171319
666,0.0168565
667,0.0165992
668,0.0165992
669,0.0165992
670,0.0165992
671,0.0165992
672,0.0166291
673,0.0167456
674,0.0168622
675,0.0169787
676,0.0170953
677,0.0172118
678,0.0173284
679,0.017445
680,0.0175615
681,0.0176781
682,0.0177946
683,0.0180248
684,0.0182773
685,0.0185299
686,0.0187824
687,0.0190349
688,0.0192874
689,0.01954
690,0.0197925
691,0.020045
692,0.0201609
693,0.0197821
694,0.0194033
695,0.0190245
696,0.0186457
697,0.018267
698,0.0178882
699,0.0180011

File: AcDOT.csv
Wavelength (nm),Absorbance
400,0.578009
401,0.585301
402,0.592594
403,0.599887
404,0.607179
405,0.614472
406,0.62189
407,0.629365
408,0.63684
409,0.644314
410,0.651789
411,0.659264
412,0.666739
413,0.674204
414,0.681631
415,0.689059
416,0.696487
417,0.703914
418,0.711342
419,0.71877
420,0.725776
421,0.732378
422,0.73898
423,0.745583
424,0.752185
425,0.758787
426,0.765389
427,0.771991
428,0.778447
429,0.784568
430,0.79069
431,0.796811
432,0.802932
433,0.809053
434,0.815175
435,0.821296
436,0.827417
437,0.833014
438,0.838409
439,0.843805
440,0.8492
441,0.854596
442,0.859991
443,0.865387
444,0.870782
445,0.876178
446,0.881554
447,0.886136
448,0.890718
449,0.895299
450,0.899881
451,0.904463
452,0.909044
453,0.913626
454,0.918208
455,0.922789
456,0.927371
457,0.931953
458,0.936411
459,0.93954
460,0.942669
461,0.945798
462,0.948927
463,0.952056
464,0.955185
465,0.958314
466,0.961443
467,0.964572
468,0.967701
469,0.97083
470,0.973959
471,0.977088
472,0.980217
473,0.983346
474,0.985576
475,0.986545
476,0.987515
477,0.988485
478,0.989455
479,0.990424
480,0.991394
481,0.992364
482,0.993334
483,0.994303
484,0.995273
485,0.996243
486,0.997213
487,0.998183
488,0.999152
489,1.00012
490,1.00109
491,1.00206
492,1.00104
493,0.999756
494,0.998471
495,0.997185
496,0.9959
497,0.994615
498,0.99333
499,0.992045
500,0.99076
501,0.989475
502,0.98819
503,0.986905
504,0.985619
505,0.984334
506,0.983049
507,0.981764
508,0.980479
509,0.977109
510,0.972936
511,0.968764
512,0.964591
513,0.960419
514,0.956246
515,0.952073
516,0.947901
517,0.943728
518,0.939556
519,0.935383
520,0.931211
521,0.926975
522,0.921144
523,0.915312
524,0.909481
525,0.90365
526,0.897819
527,0.891988
528,0.886156
529,0.880325
530,0.874408
531,0.867557
532,0.860706
533,0.853856
534,0.847005
535,0.840154
536,0.833304
537,0.826453
538,0.819602
539,0.811831
540,0.80393
541,0.79603
542,0.788129
543,0.780229
544,0.772329
545,0.763271
546,0.75321
547,0.743149
548,0.733088
549,0.723027
550,0.712966
551,0.701414
552,0.689766
553,0.678118
554,0.66647
555,0.653791
556,0.639914
557,0.626038
558,0.612162
559,0.597618
560,0.58283
561,0.568042
562,0.553252
563,0.536793
564,0.520333
565,0.503881
566,0.487787
567,0.471694
568,0.455601
569,0.439285
570,0.422854
571,0.406423
572,0.39061
573,0.376228
574,0.361845
575,0.347462
576,0.333051
577,0.318617
578,0.304184
579,0.290426
580,0.279148
581,0.26787
582,0.256592
583,0.245314
584,0.235614
585,0.228669
586,0.221723
587,0.214778
588,0.207832
589,0.200887
590,0.193942
591,0.186996
592,0.181804
593,0.178165
594,0.174527
595,0.170889
596,0.16725
597,0.163612
598,0.159974
599,0.156335
600,0.152697
601,0.149059
602,0.14542
603,0.141782
604,0.138144
605,0.134505
606,0.131549
607,0.12984
608,0.12813
609,0.12642
610,0.124711
611,0.123001
612,0.121292
613,0.119582
614,0.117872
615,0.116163
616,0.114453
617,0.112744
618,0.111034
619,0.109324
620,0.107615
621,0.105905
622,0.104196
623,0.102891
624,0.101896
625,0.100902
626,0.0999074
627,0.0989129
628,0.0979185
629,0.096924
630,0.0959296
631,0.0949351
632,0.0939407
633,0.0929462
634,0.0919518
635,0.0909573
636,0.0899629
637,0.0889684
638,0.087974
639,0.0869795
640,0.0859948
641,0.0853012
642,0.0846076
643,0.083914
644,0.0832204
645,0.0825268
646,0.0818332
647,0.0811396
648,0.080446
649,0.0797524
650,0.0790588
651,0.0783652
652,0.0776716
653,0.0769781
654,0.0762845
655,0.0755909
656,0.0748973
657,0.0742037
658,0.0736622
659,0.0731431
660,0.072624
661,0.0721049
662,0.0715858
663,0.0710667
664,0.0705476
665,0.0700285
666,0.0695094
667,0.0689903
668,0.0684712
669,0.0679521
670,0.067433
671,0.0669139
672,0.0663948
673,0.0658757
674,0.0653567
675,0.0648376
676,0.0644581
677,0.0640837
678,0.0637093
679,0.0633349
680,0.0629605
681,0.0625861
682,0.0622118
683,0.0618374
684,0.061463
685,0.0610886
686,0.0607142
687,0.0603398
688,0.0599654
689,0.059591
690,0.0592167
691,0.0588423
692,0.0584878
693,0.0582256
694,0.0579634
695,0.0577012
696,0.057439
697,0.0571768
698,0.0569146
699,0.0566524

File: ProDOT2-EDOT2.txt
Wavelength (nm),Absorbance
400,0.123702
401,0.124775
402,0.125847
403,0.12692
404,0.127992
405,0.129065
406,0.130137
407,0.13121
408,0.132282
409,0.133354
410,0.13429
411,0.135118
412,0.135947
413,0.136776
414,0.137605
415,0.138433
416,0.139262
417,0.140091
418,0.141537
419,0.143436
420,0.145335
421,0.147235
422,0.149134
423,0.151033
424,0.152139
425,0.153007
426,0.153875
427,0.154743
428,0.155611
429,0.156509
430,0.157421
431,0.158333
432,0.159244
433,0.160156
434,0.161067
435,0.161979
436,0.162934
437,0.163947
438,0.16496
439,0.165972
440,0.167032
441,0.16869
442,0.170347
443,0.172004
444,0.173662
445,0.175319
446,0.176977
447,0.178634
448,0.180298
449,0.182035
450,0.183771
451,0.185507
452,0.187244
453,0.188982
454,0.191109
455,0.193236
456,0.195363
457,0.19749
458,0.199617
459,0.201744
460,0.203871
461,0.206355
462,0.208959
463,0.211564
464,0.214168
465,0.216773
466,0.219665
467,0.222704
468,0.225743
469,0.228781
470,0.231954
471,0.235426
472,0.238899
473,0.242372
474,0.245845
475,0.250138
476,0.257228
477,0.264144
478,0.267689
479,0.271234
480,0.274779
481,0.278324
482,0.281518
483,0.284557
484,0.288118
485,0.292169
486,0.296221
487,0.300272
488,0.30455
489,0.310019
490,0.315489
491,0.320958
492,0.32675
493,0.332827
494,0.338126
495,0.341994
496,0.345861
497,0.349728
498,0.355014
499,0.362827
500,0.370641
501,0.377655
502,0.384492
503,0.391329
504,0.398165
505,0.405002
506,0.411831
507,0.417908
508,0.423985
509,0.430279
510,0.438382
511,0.446485
512,0.454588
513,0.462691
514,0.469272
515,0.475349
516,0.481426
517,0.486645
518,0.49171
519,0.496774
520,0.501838
521,0.506803
522,0.511665
523,0.516526
524,0.521388
525,0.527298
526,0.533375
527,0.539452
528,0.545529
529,0.551607
530,0.557684
531,0.564759
532,0.573875
533,0.582648
534,0.589484
535,0.596321
536,0.603471
537,0.611574
538,0.621004
539,0.642097
540,0.651213
541,0.659702
542,0.665019
543,0.670337
544,0.678235
545,0.693428
546,0.704932
547,0.715024
548,0.72414
549,0.733528
550,0.744164
551,0.760302
552,0.76486
553,0.769418
554,0.774224
555,0.781314
556,0.788404
557,0.793631
558,0.798695
559,0.803383
560,0.807941
561,0.812499
562,0.817057
563,0.820356
564,0.821659
565,0.822961
566,0.824263
567,0.825565
568,0.827
569,0.828736
570,0.830473
571,0.832209
572,0.833945
573,0.83552
574,0.836533
575,0.837546
576,0.838559
577,0.839572
578,0.840585
579,0.841597
580,0.846801
581,0.853892
582,0.859841
583,0.864703
584,0.869565
585,0.874426
586,0.881254
587,0.888344
588,0.895256
589,0.902092
590,0.908929
591,0.91759
592,0.928294
593,0.941968
594,0.949739
595,0.956829
596,0.962645
597,0.967963
598,0.97328
599,0.977236
600,0.980882
601,0.984529
602,0.988203
603,0.992001
604,0.9958
605,0.998423
606,0.998043
607,0.997663
608,0.997283
609,0.996903
610,0.996523
611,0.994884
612,0.991846
613,0.988807
614,0.985768
615,0.980165
616,0.974088
617,0.959915
618,0.952158
619,0.945068
620,0.932022
621,0.922906
622,0.91379
623,0.904675
624,0.893088
625,0.877895
626,0.869954
627,0.862358
628,0.828368
629,0.82229
630,0.816213
631,0.807456
632,0.789544
633,0.780428
634,0.7713125
635,0.761411
636,0.751074
637,0.744996
638,0.738919
639,0.732842
640,0.728088
641,0.72505
642,0.722011
643,0.718326
644,0.714072
645,0.709818
646,0.705564
647,0.701036
648,0.696478
649,0.69192
650,0.68812
651,0.684322
652,0.680452
653,0.675894
654,0.671336
655,0.666489
656,0.660412
657,0.654354
658,0.649796
659,0.645238
660,0.64068
661,0.636122
662,0.631564
663,0.625864
664,0.615735
665,0.605738
666,0.60042
667,0.595102
668,0.589191
669,0.5790625
670,0.568934
671,0.554017
672,0.541181
673,0.530763
674,0.520345
675,0.510588
676,0.50011
677,0.484917
678,0.47306
679,0.462728
680,0.448162
681,0.433182
682,0.421788
683,0.410393
684,0.3995
685,0.391397
686,0.383294
687,0.366801
688,0.351676
689,0.338039
690,0.324871
691,0.311704
692,0.291301
693,0.276397
694,0.26956
695,0.262723
696,0.256158
697,0.249828
698,0.243497
699,0.237167

File: ProDOT2-EDOT.txt
Wavelength (nm),Absorbance
400,0.123801
402,0.125885
404,0.128137
406,0.130423
408,0.132708
410,0.134993
412,0.137719
414,0.140607
416,0.143495
418,0.146383
420,0.149476
422,0.152691
424,0.155905
426,0.159119
428,0.162558
430,0.166199
432,0.16984
434,0.173482
436,0.177362
438,0.181573
440,0.185783
442,0.189994
444,0.194566
446,0.199915
448,0.205264
450,0.210612
452,0.216208
454,0.222712
456,0.229217
458,0.235721
460,0.242567
462,0.250226
464,0.257884
466,0.265543
468,0.273522
470,0.281522
472,0.289523
474,0.29752
476,0.305517
478,0.313515
480,0.323245
482,0.334145
484,0.345045
486,0.357012
488,0.368995
490,0.381499
492,0.39404
494,0.407412
496,0.420897
498,0.434891
500,0.44899
502,0.461415
504,0.474686
506,0.490224
508,0.504347
510,0.517554
512,0.530492
514,0.543335
516,0.556831
518,0.570773
520,0.586148
522,0.602333
524,0.619268
526,0.637316
528,0.656351
530,0.676891
532,0.69852
534,0.719486
536,0.739647
538,0.759063
540,0.776521
542,0.792527
544,0.8044
546,0.816146
548,0.822162
550,0.828178
552,0.834194
554,0.836545
556,0.838253
558,0.83996
560,0.841668
562,0.846236
564,0.851774
566,0.857311
568,0.866737
570,0.879026
572,0.893361
574,0.908947
576,0.926026
578,0.942581
580,0.958561
582,0.9733
584,0.985977
586,0.989393
588,0.992808
590,0.996224
592,0.989088
594,0.979706
596,0.967182
598,0.943054
600,0.920715
602,0.881106
604,0.84696
606,0.820131
608,0.7839
610,0.755871
612,0.727141
614,0.704474
616,0.683266
618,0.663658
620,0.645048
622,0.631713
624,0.620288
626,0.615501
628,0.610714
630,0.605926
632,0.601139
634,0.597278
636,0.594144
638,0.591009
640,0.587875
642,0.580295
644,0.570248
646,0.559947
648,0.541875
650,0.519972
652,0.492996
654,0.465143
656,0.431001
658,0.405337
660,0.378146
662,0.348781
664,0.303721
666,0.269348
668,0.238682
670,0.21357
672,0.192628
674,0.174722
676,0.159147
678,0.143959
680,0.129451
682,0.116947
684,0.106465
686,0.095983
688,0.0890287
690,0.0825262
692,0.0760238
694,0.0701714
696,0.0655674
698,0.0609635
700,0.0563596
702,0.0522727
704,0.0498348
706,0.0473968
708,0.0449588
710,0.0425945
712,0.0405837
714,0.0385729
716,0.0365621
718,0.0345667
720,0.0330461
722,0.0315256
724,0.0300051
726,0.0284845
728,0.0279366
730,0.0275083
732,0.02708
734,0.0266517
736,0.026266
738,0.0258893
740,0.0255126
742,0.0251359
744,0.0248316
746,0.0245554
748,0.0242791
749,0.024141