Folder: Polymer_electronics_multimodal_database/conjugated_ECPs/uv_vis_automated/J. Mat. Chem C, 3, 3211-3218, 2015/metadata (part 2)

File: ProDOT-EDOT.csv
Wavelength (nm),Absorbance
400,0.189017
402,0.191426
404,0.193836
406,0.199114
408,0.204838
410,0.210562
412,0.214285
414,0.21783
416,0.221375
418,0.22492
420,0.228783
422,0.232893
424,0.237003
426,0.241912
428,0.247263
430,0.252615
432,0.257966
434,0.263318
436,0.26894
438,0.274568
440,0.280196
442,0.285824
444,0.29337
446,0.301777
448,0.310071
450,0.317628
452,0.325184
454,0.33274
456,0.341345
458,0.350119
460,0.358893
462,0.367792
464,0.377522
466,0.387252
468,0.397333
470,0.409756
472,0.422144
474,0.432497
476,0.44285
478,0.454984
480,0.468285
482,0.480645
484,0.491215
486,0.502821
488,0.519533
490,0.534641
492,0.550182
494,0.566652
496,0.584257
498,0.603641
500,0.615314
502,0.626974
504,0.640945
506,0.655823
508,0.673121
510,0.68864
512,0.702293
514,0.717536
516,0.733742
518,0.748116
520,0.76238
522,0.775319
524,0.787704
526,0.800607
528,0.813886
530,0.828264
532,0.843196
534,0.854113
536,0.864766
538,0.876291
540,0.889276
542,0.901181
544,0.911261
546,0.921321
548,0.930437
550,0.939553
552,0.948669
554,0.953463
556,0.958147
558,0.962831
560,0.967514
562,0.970831
564,0.972589
566,0.974347
568,0.976106
570,0.978012
572,0.980001
574,0.981989
576,0.983978
578,0.985967
580,0.987709
582,0.989245
584,0.990782
586,0.992318
588,0.993854
590,0.99539
592,0.996882
594,0.998374
596,0.999865
598,1.00136
600,0.996317
602,0.990611
604,0.984905
606,0.979199
608,0.97341
610,0.963619
612,0.953828
614,0.942193
616,0.926887
618,0.910982
620,0.893801
622,0.879601
624,0.863923
626,0.840659
628,0.82305
630,0.807835
632,0.79834
634,0.788844
636,0.779168
638,0.767013
640,0.754859
642,0.743235
644,0.732675
646,0.722116
648,0.709246
650,0.695952
652,0.682658
654,0.667991
656,0.653102
658,0.636045
660,0.61991
662,0.604695
664,0.584846
666,0.560685
668,0.53639
670,0.51487
672,0.4955
674,0.474785
676,0.444226
678,0.418264
680,0.396761
682,0.375587
684,0.353822
686,0.331442
688,0.313401
690,0.298562
692,0.283087
694,0.252386
696,0.237993
698,0.2236
700,0.213624
702,0.204393
704,0.194265
706,0.184136
708,0.176034
710,0.168364
712,0.160695
714,0.152879
716,0.144889
718,0.136899
720,0.129267
722,0.124903
724,0.12054
726,0.116177
728,0.111814
730,0.108301
732,0.104932
734,0.101564
736,0.0981947
738,0.0954643
740,0.0932253
742,0.0909863
744,0.0887474
746,0.0865084
748,0.0847203
749,0.0838897

File: ProDOT.csv
Wavelength (nm),Absorbance
400,0.119184
402,0.120289
404,0.121394
406,0.122499
408,0.124465
410,0.126744
412,0.129023
414,0.132087
416,0.135314
418,0.13854
420,0.141766
422,0.144992
424,0.147684
426,0.15021
428,0.152737
430,0.155263
432,0.159055
434,0.163257
436,0.16746
438,0.171662
440,0.175499
442,0.179044
444,0.183429
446,0.189622
448,0.195816
450,0.201123
452,0.206015
454,0.210907
456,0.215798
458,0.223222
460,0.231324
462,0.242526
464,0.252888
466,0.258001
468,0.263155
470,0.27478
472,0.282976
474,0.290269
476,0.298353
478,0.306456
480,0.314882
482,0.32339
484,0.33698
486,0.354693
488,0.365064
490,0.372809
492,0.384336
494,0.398152
496,0.417206
498,0.435996
500,0.454228
502,0.478655
504,0.503926
506,0.522061
508,0.54171
510,0.56051
512,0.573671
514,0.582299
516,0.588742
518,0.590474
520,0.592207
522,0.590381
524,0.587342
526,0.588588
528,0.593091
530,0.597594
532,0.609113
534,0.629441
536,0.691475
538,0.70581
540,0.759018
542,0.798271
544,0.825101
546,0.848607
548,0.889868
550,0.902022
552,0.911314
554,0.915572
556,0.908665
558,0.898625
560,0.887061
562,0.860904
564,0.830173
566,0.768003
568,0.71981
570,0.666383
572,0.63965
574,0.607702
576,0.599473
578,0.600775
580,0.602077
582,0.614137
584,0.634802
586,0.690511
588,0.750183
590,0.783575
592,0.81925
594,0.875307
596,0.929653
598,0.956386
600,0.966331
602,0.974605
604,0.979728
606,0.980277
608,0.980826
610,0.964076
612,0.931949
614,0.803056
616,0.695304
618,0.563557
620,0.470776
622,0.360518
624,0.282172
626,0.218218
628,0.17941
630,0.138266
632,0.121829
634,0.106614
636,0.0951768
638,0.0849419
640,0.074707
642,0.0689438
644,0.0656625
646,0.0623812
648,0.0589874
650,0.0555147
652,0.0521404
654,0.0507517
656,0.0493631
658,0.0481186
660,0.0473085
662,0.0464983
664,0.0456882
666,0.0450074
668,0.0443447
670,0.0436821
672,0.0430194
674,0.0423568
676,0.0417678
678,0.0412154
680,0.0409603
682,0.0410988
684,0.0411765
686,0.0411765
688,0.0411765
690,0.040342
692,0.0394131
694,0.0395491
696,0.0401085
698,0.0406678
700,0.0410681
702,0.0398734
704,0.0386787
706,0.037484
708,0.0367388
710,0.0373119
712,0.0378849
714,0.0384579
716,0.0390506
718,0.0398102
720,0.0405699
722,0.0407861
724,0.0388483
726,0.0369105
728,0.035776
730,0.0360196
732,0.0362633
734,0.0365069
736,0.0367506
738,0.0359117
740,0.0350061
742,0.0341006
744,0.033195
746,0.0335755
748,0.0339899
749,0.0341294