Folder: Polymer_electronics_multimodal_database/conjugated_ECPs/uv_vis_automated/Adv. Mater., 22, 4949-4953, 2010/metadata

Note: conjugated_ECPs/README.md
The files are organized as following:

File: ECP-1.txt
Wavelength (nm)	Absorbance
360	0.401794
362	0.406099
364	0.411121
366	0.417578
368	0.424036
370	0.428956
372	0.432646
374	0.436336
376	0.440026
378	0.446637
380	0.454709
382	0.460732
384	0.464194
386	0.467656
388	0.471119
390	0.479902
392	0.4914595
394	0.503017
396	0.514575
398	0.524752
400	0.534137
402	0.543522
404	0.552907
406	0.559714
408	0.565984
410	0.572255
412	0.584589
414	0.598287
416	0.609712
418	0.620427
420	0.630936
422	0.641188
424	0.651987
426	0.663288
428	0.674588
430	0.678045
432	0.680621
434	0.683198
436	0.685202
438	0.685202
440	0.685202
442	0.685202
444	0.685202
446	0.685776
448	0.688359
450	0.690942
452	0.693525
454	0.696108
456	0.698691
458	0.699552
460	0.699552
462	0.699552
464	0.699552
466	0.699312
468	0.698236
470	0.69716
472	0.696084
474	0.694399
476	0.692638
478	0.690876
480	0.689115
482	0.687354
484	0.685593
486	0.685202
488	0.685202
490	0.685202
492	0.685202
494	0.685202
496	0.685202
498	0.685202
500	0.685202
502	0.685521
504	0.686238
506	0.686956
508	0.687673
510	0.688391
512	0.693812
514	0.705112
516	0.700508
518	0.704813
520	0.709118
522	0.713423
524	0.720789
526	0.728538
528	0.736143
530	0.742601
532	0.749058
534	0.755516
536	0.759964
538	0.763839
540	0.767713
542	0.773094
544	0.778475
546	0.783857
548	0.79713
550	0.81435
552	0.819193
554	0.824036
556	0.832143
558	0.841184
560	0.850224
562	0.857973
564	0.865722
566	0.8767713
568	0.897668
570	0.904933
572	0.912197
574	0.919462
576	0.926726
578	0.934888
580	0.943498
582	0.952108
584	0.960717
586	0.969327
588	0.975272
590	0.979885
592	0.984497
594	0.98911
596	0.99139
598	0.993004
600	0.994619
602	0.996233
604	0.997309
606	0.997309
608	0.997309
610	0.997309
612	0.997309
614	0.997309
616	0.993961
618	0.989656
620	0.985351
622	0.981046
624	0.976741
626	0.969925
628	0.962392
630	0.954858
632	0.943019
634	0.9258
636	0.914439
638	0.904753
640	0.893274
642	0.880359
644	0.867444
646	0.854529
648	0.841614
650	0.8287
652	0.804305
654	0.792825
656	0.784753
658	0.755874
660	0.746188
662	0.734888
664	0.723587
666	0.673483
668	0.657524
670	0.63497
672	0.618833
674	0.597907
676	0.57722
678	0.559462
680	0.541704
682	0.524484
684	0.485022
686	0.447952
688	0.382242
690	0.367713
692	0.353184
694	0.343252
696	0.333894
698	0.324537
700	0.314778
702	0.295288
704	0.276173
706	0.2599
708	0.243401
710	0.226514
712	0.211227
714	0.197941
716	0.1845645
718	0.171106
720	0.15969
722	0.149511
724	0.14008
726	0.13176
728	0.123439
730	0.115125
732	0.10966
734	0.104195
736	0.0987299
738	0.0936954
740	0.0895328
742	0.0853702
744	0.0812076
746	0.0774108
748	0.0740043
750	0.0705978
752	0.0671913
754	0.06437528
756	0.0621704
758	0.0599656
760	0.0577607
762	0.0570596
764	0.0567572
766	0.0564548
768	0.05615237
770	0.0560934
772	0.0560489
774	0.0560044
776	0.05594357
778	0.0557301
780	0.0555166
782	0.0553032
784	0.0552633
786	0.0557436
788	0.0562239
790	0.0567042
792	0.0569692
794	0.0569158
796	0.0568624
798	0.0568091
799	0.0568036

File: ECP-2.txt
Wavelength (nm)	Absorbance
360	0.357919
362	0.362645
364	0.368275
366	0.373905
368	0.379535
370	0.38573
372	0.392266
374	0.398802
376	0.405337
378	0.412044
380	0.41876
382	0.425476
384	0.433646
386	0.443561
388	0.453475
390	0.461801
392	0.47004
394	0.478279
396	0.489715
398	0.502146
400	0.513123
402	0.523075
404	0.533027
406	0.546001
408	0.559666
410	0.570358
412	0.580588
414	0.591252
416	0.602214
418	0.613567
420	0.62532
422	0.629218
424	0.63044
426	0.633973
428	0.645596
430	0.65722
432	0.667982
434	0.677668
436	0.687354
438	0.696801
440	0.704335
442	0.711868
444	0.719402
446	0.729447
448	0.740209
450	0.750972
452	0.758744
454	0.76278
456	0.766816
458	0.770852
460	0.774888
462	0.779193
464	0.783498
466	0.787803
468	0.792108
470	0.796413
472	0.800717
474	0.803587
476	0.803587
478	0.804018
480	0.807892
482	0.811767
484	0.815067
486	0.81722
488	0.819372
490	0.821525
492	0.821525
494	0.821525
496	0.821525
498	0.821525
500	0.821525
502	0.821525
504	0.821525
506	0.822242
508	0.825471
510	0.8287
512	0.829507
514	0.830314
516	0.831121
518	0.831928
520	0.834081
522	0.837309
524	0.840538
526	0.843528
528	0.84568
530	0.847833
532	0.849985
534	0.851659
536	0.853274
538	0.854888
540	0.856502
542	0.867444
544	0.882511
546	0.882511
548	0.882511
550	0.882511
552	0.88574
554	0.888969
556	0.892197
558	0.900448
560	0.911211
562	0.915823
564	0.920436
566	0.925048
568	0.929865
570	0.936323
572	0.94278
574	0.948592
576	0.953112
578	0.957632
580	0.962152
582	0.966673
584	0.971193
586	0.977937
588	0.985317
590	0.992697
592	1.00008
594	0.987024
596	0.984278
598	0.981532
600	0.985408
602	0.999348
604	1.0009
606	1.0009
608	1.0009
610	0.998847
612	0.995157
614	0.991467
616	0.987777
618	0.984395
620	0.981166
622	0.977937
624	0.974709
626	0.97148
628	0.967892
630	0.961435
632	0.954978
634	0.94852
636	0.940389
638	0.932018
640	0.920777
642	0.90571
644	0.896861
646	0.888789
648	0.855964
650	0.843049
652	0.830135
654	0.8
656	0.789238
658	0.76843
660	0.749776
662	0.734948
664	0.717728
666	0.688295
668	0.655372
670	0.670852
672	0.643408
674	0.615964
676	0.588341
678	0.586009
680	0.565022
682	0.544036
684	0.500448
686	0.484305
688	0.466009
690	0.430493
692	0.420161
694	0.40983
696	0.369507
698	0.338188
700	0.314778
702	0.295288
704	0.276173
706	0.2599
708	0.243401
710	0.226514
712	0.211227
714	0.197941
716	0.185767
718	0.174615
720	0.163627
722	0.153134
724	0.142641
726	0.133019
728	0.123616
730	0.11422
732	0.107938
734	0.101657
736	0.0953758
738	0.0899008
740	0.0860584
742	0.082216
744	0.0783736
746	0.07511218
748	0.0724705
750	0.0698289
752	0.0671872
754	0.06469854
756	0.062297
758	0.0598955
760	0.057494
762	0.05681495
764	0.0565926
766	0.0563702
768	0.0561479
770	0.0560934
772	0.0560489
774	0.0560044
776	0.05594357
778	0.0557301
780	0.0555166
782	0.0553032
784	0.0552633
786	0.0557436
788	0.0562239
790	0.0567042
792	0.0569692
794	0.0569158
796	0.0568624
798	0.0568091
799	0.0567991

File: ECP-3.txt
Wavelength (nm)	Absorbance
360	0.357919
362	0.362645
364	0.368275
366	0.373905
368	0.379535
370	0.38573
372	0.392266
374	0.398802
376	0.405337
378	0.412044
380	0.41876
382	0.425476
384	0.433646
386	0.443561
388	0.453475
390	0.461801
392	0.47004
394	0.478279
396	0.489715
398	0.502146
400	0.513579
402	0.524308
404	0.535037
406	0.550576
408	0.564267
410	0.57458
412	0.584894
414	0.596862
416	0.609331
418	0.622655
420	0.636354
422	0.648541
424	0.65959
426	0.67064
428	0.684932
430	0.698483
432	0.710501
434	0.722519
436	0.7345368
438	0.746443
440	0.757833
442	0.769245
444	0.780904
446	0.792563
448	0.803319
450	0.814057
452	0.824192
454	0.834078
456	0.843787
458	0.85161
460	0.859434
462	0.867257
464	0.875655
466	0.884116
468	0.892546
470	0.900795
472	0.909045
474	0.917294
476	0.923093
478	0.92835
480	0.933607
482	0.938863
484	0.94246
486	0.946009
488	0.949558
490	0.952936
492	0.955124
494	0.957312
496	0.9595
498	0.961634
500	0.963628
502	0.965623
504	0.967655
506	0.969941
508	0.972228
510	0.974514
512	0.975785
514	0.975785
516	0.975785
518	0.975785
520	0.976125
522	0.976737
524	0.977349
526	0.977961
528	0.978426
530	0.978426
532	0.978426
534	0.978426
536	0.978299
538	0.977979
540	0.977659
542	0.977339
544	0.977077
546	0.976864
548	0.97665
550	0.976437
552	0.977025
554	0.977954
556	0.979893
558	0.982497
560	0.985101
562	0.987504
564	0.989656
566	0.991809
568	0.994081
570	0.997309
572	1.00054
574	1.00377
576	1.00448
578	1.00448
580	1.00448
582	1.00448
584	1.00182
586	0.998826
588	0.995831
590	0.992835
592	0.98984
594	0.986773
596	0.983677
598	0.980582
600	0.977487
602	0.974019
604	0.970497
606	0.966975
608	0.963426
610	0.958863
612	0.9543
614	0.949737
616	0.944926
618	0.938976
620	0.933025
622	0.927075
624	0.920636
626	0.913213
628	0.90579
630	0.898347
632	0.888953
634	0.879559
636	0.86967
638	0.858995
640	0.848321
642	0.836528
644	0.824664
646	0.811976
648	0.798435
650	0.784566
652	0.77019
654	0.75488
656	0.739229
658	0.723908
660	0.708401
662	0.692423
664	0.676467
666	0.660934
668	0.6454
670	0.61704
672	0.601973
674	0.579013
676	0.557848
678	0.519462
680	0.502242
682	0.489327
684	0.46565
686	0.452735
688	0.438386
690	0.398206
692	0.378834
694	0.359462
696	0.343907
698	0.329442
700	0.314778
702	0.295288
704	0.276173
706	0.2599
708	0.243401
710	0.226514
712	0.211227
714	0.197941
716	0.1845645
718	0.171106
720	0.15969
722	0.149511
724	0.139947
726	0.131294
728	0.122641
730	0.113994
732	0.107774
734	0.101554
736	0.0953347
738	0.0899008
740	0.0860584
742	0.082216
744	0.0783736
746	0.0750655
748	0.0723275
750	0.06958938
752	0.0668513
754	0.0643344
756	0.0620463
758	0.0597583
760	0.0574702
762	0.05681495
764	0.0565926
766	0.0563702
768	0.0561479
770	0.0560934
772	0.0560489
774	0.0560044
776	0.05594357
778	0.0557301
780	0.0555166
782	0.0553032
784	0.0552633
786	0.0557436
788	0.0562239
790	0.0567042
792	0.0569692
794	0.0569158
796	0.0568624
798	0.0568091
799	0.0568036

File: ECP-4.txt
Wavelength (nm)	Absorbance
428	0.291209
429	0.296703
430	0.302198
431	0.302198
432	0.307692
433	0.313187
434	0.318681
435	0.324176
436	0.32967
437	0.32967
438	0.335165
439	0.340659
440	0.346154
441	0.357143
442	0.362637
443	0.368132
444	0.373626
445	0.379121
446	0.384615
447	0.39011
448	0.401099
449	0.406593
450	0.417582
451	0.423077
452	0.434066
453	0.43956
454	0.456044
455	0.461538
456	0.472527
457	0.478022
458	0.489011
459	0.5
460	0.510989
461	0.521978
462	0.532967
463	0.538462
464	0.554945
465	0.56044
466	0.576923
467	0.582418
468	0.593407
469	0.604396
470	0.615385
471	0.620879
472	0.631868
473	0.642857
474	0.637363
475	0.659341
476	0.660911
477	0.673469
478	0.686028
479	0.698587
480	0.711146
481	0.723705
482	0.736264
483	0.747253
484	0.752747
485	0.771978
486	0.802198
487	0.807692
488	0.807692
489	0.802198
490	0.813187
491	0.818681
492	0.824176
493	0.835165
494	0.846154
495	0.851648
496	0.857143
497	0.868132
498	0.873626
499	0.879121
500	0.89011
501	0.895604
502	0.901099
503	0.906593
504	0.912088
505	0.917582
506	0.923077
507	0.923077
508	0.928571
509	0.934066
510	0.934066
511	0.93956
512	0.93956
513	0.93956
514	0.945055
515	0.945055
516	0.947802
517	0.950549
518	0.956044
519	0.961538
520	0.967033
521	0.967033
522	0.967033
523	0.972527
524	0.972527
525	0.972527
526	0.972894
527	0.97326
528	0.973626
529	0.973993
530	0.974359
531	0.974725
532	0.975092
533	0.975458
534	0.975824
535	0.97619
536	0.976557
537	0.976923
538	0.977289
539	0.977656
540	0.978022
541	0.978022
542	0.978022
543	0.978022
544	0.978022
545	0.978022
546	0.978022
547	0.978022
548	0.983516
549	0.983516
550	0.983516
551	0.994505
552	1
553	0.994505
554	0.994505
555	0.989011
556	0.994505
557	0.994505
558	0.994505
559	0.989011
560	0.989011
561	0.989011
562	0.989011
563	0.989011
564	0.978022
565	0.972527
566	0.967033
567	0.964286
568	0.961538
569	0.961538
570	0.961538
571	0.956044
572	0.950549
573	0.945055
574	0.93956
575	0.93956
576	0.934066
577	0.928571
578	0.923077
579	0.917582
580	0.912088
581	0.912088
582	0.906593
583	0.901099
584	0.895604
585	0.89011
586	0.89011
587	0.884615
588	0.873626
589	0.862637
590	0.857143
591	0.851648
592	0.835165
593	0.835165
594	0.818681
595	0.813187
596	0.802198
597	0.784493
598	0.772283
599	0.760073
600	0.747863
601	0.735653
602	0.723443
603	0.711233
604	0.699023
605	0.686813
606	0.681319
607	0.675824
608	0.653846
609	0.631868
610	0.620879
611	0.60989
612	0.598901
613	0.582418
614	0.549451
615	0.549451
616	0.516484
617	0.516484
618	0.5
619	0.472527
620	0.445055
621	0.428571
622	0.412088
623	0.395604
624	0.373626
625	0.347985
626	0.327839
627	0.307692
628	0.287546
629	0.267399
630	0.247253
631	0.227106
632	0.20696
633	0.186813
634	0.186813
635	0.181319
636	0.186813
637	0.153846
638	0.148352
639	0.142857
640	0.142857
641	0.131868
642	0.126374
643	0.115385
644	0.10989
645	0.104396
646	0.0934066
647	0.0879121
648	0.0769231
649	0.0659341
650	0.0659341
651	0.0549451
652	0.0494505
653	0.0494505
654	0.043956
655	0.043956
656	0.0384615
657	0.032967
658	0.0274725
659	0.0274725
660	0.021978
661	0.021978
662	0.021978
663	0.0164835
664	0.0164835
665	0.010989
666	0.010989
667	0.010989
668	0.005494505
669	0.005494505
670	0.005494505
671	0.005494505
672	0.005494505
673	0.002747253
674	0.005494505
675	0.005494505
676	0
677	0
678	0
679	0
680	0
681	0
682	0
683	0
684	0
685	0
686	0
687	0
688	0
689	0
690	0
691	0
692	0
693	0
694	0
695	0
696	0
697	0
698	0
699	0
700	0
701	0
702	0
703	0
704	0
705	0
706	0
707	0
708	0
709	0
710	0
711	0
712	0
713	0
714	0

File: ECP-5.txt
Wavelength (nm)	Absorbance
360	0.300041
362	0.301215
364	0.307085
366	0.313543
368	0.32
370	0.326457
372	0.335785
374	0.346009
376	0.350852
378	0.355874
380	0.362332
382	0.368789
384	0.375247
386	0.381704
388	0.390744
390	0.401076
392	0.411408
394	0.422123
396	0.432543
398	0.441768
400	0.450993
402	0.460218
404	0.471211
406	0.48574
408	0.499659
410	0.5087
412	0.51774
414	0.533453
416	0.559211
418	0.573417
420	0.587623
422	0.600538
424	0.611839
426	0.623211
428	0.634834
430	0.646457
432	0.660568
434	0.677788
436	0.691659
438	0.704574
440	0.717489
442	0.730404
444	0.743318
446	0.7713
448	0.789058
450	0.799552
452	0.810045
454	0.820538
456	0.830673
458	0.839552
460	0.84843
462	0.857309
464	0.866188
466	0.875974
468	0.886019
470	0.896064
472	0.906109
474	0.916153
476	0.931444
478	0.948233
480	0.965022
482	0.97517
484	0.985317
486	0.995464
488	1.00529
490	1.01256
492	1.01982
494	1.02709
496	1.03435
498	1.04046
500	1.046
502	1.05153
504	1.05707
506	1.0603
508	1.06289
510	1.06547
512	1.06805
514	1.07064
516	1.07296
518	1.0744
520	1.07583
522	1.07727
524	1.0787
526	1.07946
528	1.07785
530	1.07623
532	1.07462
534	1.073
536	1.07064
538	1.06805
540	1.06547
542	1.06289
544	1.0603
546	1.05654
548	1.04865
550	1.04076
552	1.03286
554	1.02497
556	1.01781
558	1.0132
560	1.00858
562	1.00397
564	0.999605
566	0.995731
568	0.991857
570	0.987982
572	0.984108
574	0.980233
576	0.971001
578	0.960239
580	0.949477
582	0.932018
584	0.91157
586	0.901883
588	0.893991
590	0.900448
592	0.890117
594	0.879785
596	0.870601
598	0.865435
600	0.860269
602	0.849937
604	0.833148
606	0.816359
608	0.805381
610	0.797309
612	0.785172
614	0.767952
616	0.760359
618	0.755516
620	0.750673
622	0.74583
624	0.739641
626	0.730762
628	0.721883
630	0.713004
632	0.704126
634	0.685919
636	0.675336
638	0.667265
640	0.652915
642	0.637848
644	0.628161
646	0.618117
648	0.606816
650	0.595516
652	0.576143
654	0.5567713
656	0.534888
658	0.520179
660	0.509417
662	0.501668
664	0.493919
666	0.484066
668	0.466846
670	0.447235
672	0.42571
674	0.411839
676	0.378595
678	0.371061
680	0.363528
682	0.355994
684	0.349417
686	0.34296
688	0.297758
690	0.286996
692	0.276233
694	0.266547
696	0.259013
698	0.25148
700	0.243946
702	0.221991
704	0.200036
706	0.196592
708	0.164425
710	0.159043
712	0.153662
714	0.148281
716	0.142691
718	0.13704
720	0.13139
722	0.12574
724	0.114798
726	0.0932735
728	0.0827504
730	0.077728
732	0.0727055
734	0.0676831
736	0.0626607
738	0.0566816
740	0.0502242
742	0.0437668
744	0.0386547
746	0.0362332
748	0.0338117
750	0.0313901
752	0.02896861
754	0.0272646
756	0.0256502
758	0.0240359
760	0.0224215
762	0.0243946
764	0.0237875
766	0.0222973
768	0.0208072
770	0.019317
772	0.0178268
774	0.0163367
776	0.0148465
778	0.0139193
780	0.0132735
782	0.0126278
784	0.0119821
786	0.0113363
788	0.0107623
790	0.0107623
792	0.0107623
794	0.01058296
796	0.0100448
798	0.009506726
799	0.009237668