Folder: Polymer_electronics_multimodal_database/conjugated_ECPs/uv_vis_automated/Nature Materials, 2008, 7, 795–799/metadata

Note: conjugated_ECPs/README.md
The files are organized as following:

File: P1.csv
Wavelength (nm),Absorbance
436,0.361963
437,0.374233
438,0.411043
439,0.411043
440,0.411043
441,0.417178
442,0.429448
443,0.441718
444,0.425066
445,0.439089
446,0.453111
447,0.467134
448,0.481157
449,0.49518
450,0.509202
451,0.518405
452,0.527607
453,0.533742
454,0.539877
455,0.546012
456,0.552147
457,0.552147
458,0.539877
459,0.539877
460,0.539877
461,0.552147
462,0.527607
463,0.546012
464,0.515337
465,0.527607
466,0.521472
467,0.509202
468,0.486196
469,0.46319
470,0.440184
471,0.417178
472,0.441718
473,0.423313
474,0.398773
475,0.380368
476,0.294479
477,0.331288
478,0.300613
479,0.276074
480,0.257669
481,0.233129
482,0.214724
483,0.196319
484,0.177914
485,0.165644
486,0.159509
487,0.128834
488,0.130368
489,0.131902
490,0.133436
491,0.134969
492,0.136503
493,0.138037
494,0.139571
495,0.141104
496,0.142638
497,0.144172
498,0.145706
499,0.147239
500,0.134969
501,0.147239
502,0.159509
503,0.147239
504,0.159509
505,0.171779
506,0.163599
507,0.173824
508,0.184049
509,0.190184
510,0.196319
511,0.182004
512,0.186094
513,0.190184
514,0.214724
515,0.220859
516,0.226994
517,0.233129
518,0.239264
519,0.245399
520,0.251534
521,0.233129
522,0.239264
523,0.245399
524,0.251534
525,0.257669
526,0.288344
527,0.294479
528,0.300613
529,0.306748
530,0.312883
531,0.309816
532,0.306748
533,0.312883
534,0.343558
535,0.349693
536,0.355828
537,0.365031
538,0.374233
539,0.380368
540,0.386503
541,0.374233
542,0.404908
543,0.386503
544,0.423313
545,0.404908
546,0.441718
547,0.447853
548,0.460123
549,0.466258
550,0.478528
551,0.460123
552,0.496933
553,0.478528
554,0.515337
555,0.527607
556,0.509202
557,0.546012
558,0.558282
559,0.570552
560,0.552147
561,0.564417
562,0.601227
563,0.613497
564,0.625767
565,0.638037
566,0.619632
567,0.662577
568,0.671779
569,0.680982
570,0.693252
571,0.705521
572,0.717791
573,0.730061
574,0.748466
575,0.754601
576,0.766871
577,0.779141
578,0.785276
579,0.773006
580,0.809816
581,0.797546
582,0.803681
583,0.815951
584,0.833129
585,0.850307
586,0.867485
587,0.884663
588,0.90184
589,0.91411
590,0.97546
591,0.97546
592,0.91411
593,0.95092
594,0.957055
595,0.96319
596,0.969325
597,0.97546
598,0.96319
599,0.969325
600,0.993865
601,0.996933
602,1
603,0.993865
604,0.98773
605,0.988674
606,0.989618
607,0.990562
608,0.991505
609,0.992449
610,0.993393
611,0.994337
612,0.995281
613,0.996225
614,0.997168
615,0.998112
616,0.999056
617,1
618,0.981595
619,0.993865
620,0.969325
621,0.98773
622,0.957055
623,0.95092
624,0.93865
625,0.957055
626,0.920245
627,0.93865
628,0.92638
629,0.91411
630,0.90184
631,0.883436
632,0.865031
633,0.846626
634,0.828221
635,0.803681
636,0.779141
637,0.760736
638,0.730061
639,0.705521
640,0.680982
641,0.650307
642,0.625767
643,0.588957
644,0.558282
645,0.533742
646,0.496933
647,0.472393
648,0.441718
649,0.411043
650,0.380368
651,0.355828
652,0.325153
653,0.300613
654,0.276074
655,0.251534
656,0.226994
657,0.208589
658,0.184049
659,0.165644
660,0.147239
661,0.134969
662,0.122699
663,0.09202454
664,0.0674847
665,0.0858896
666,0.0736196
667,0.0674847
668,0.0368098
669,0.0306748
670,0.0368098
671,0.0429448
672,0.0368098
673,0.0204499
674,0.0224949
675,0.0245399
676,0.0143149
677,0.0163599
678,0.0184049
679,0.007668712
680,0.009202454
681,0.0107362
682,0.0122699
683,0
684,0.006134969
685,0.006134969
686,0.006134969
687,0.006134969
688,0.006134969
689,0.006134969
690,0.006134969
691,0.006134969
692,0.006134969
693,0.006134969
694,0.006134969
695,0.006134969
696,0
697,0
698,0
699,0
700,0
701,0.006134969
702,0.006134969
703,0.006134969
704,0.006134969

File: P2.txt
Wavelength (nm)	Absorbance
435	0.382716
436	0.395062
437	0.401235
438	0.41358
439	0.425926
440	0.438272
441	0.450617
442	0.462963
443	0.475309
444	0.487654
445	0.5
446	0.512346
447	0.524691
448	0.537037
449	0.530864
450	0.567901
451	0.580247
452	0.592593
453	0.611111
454	0.623457
455	0.635802
456	0.648148
457	0.660494
458	0.67284
459	0.685185
460	0.691358
461	0.703704
462	0.709877
463	0.716049
464	0.722222
465	0.728395
466	0.722222
467	0.722994
468	0.723765
469	0.724537
470	0.725309
471	0.72608
472	0.726852
473	0.727623
474	0.728395
475	0.734568
476	0.709877
477	0.722222
478	0.709877
479	0.703704
480	0.676955
481	0.662551
482	0.648148
483	0.648148
484	0.635802
485	0.617284
486	0.598765
487	0.58642
488	0.567901
489	0.537037
490	0.530864
491	0.518519
492	0.5
493	0.487654
494	0.469136
495	0.450617
496	0.438272
497	0.425926
498	0.41358
499	0.401235
500	0.388889
501	0.376543
502	0.364198
503	0.358025
504	0.351852
505	0.339506
506	0.330247
507	0.333333
508	0.32716
509	0.32716
510	0.32716
511	0.32716
512	0.333333
513	0.339506
514	0.345679
515	0.351852
516	0.358025
517	0.364198
518	0.37037
519	0.382716
520	0.388889
521	0.401235
522	0.41358
523	0.419753
524	0.432099
525	0.419753
526	0.438272
527	0.45679
528	0.475309
529	0.484568
530	0.493827
531	0.5
532	0.518519
533	0.518519
534	0.549383
535	0.537037
536	0.555556
537	0.574074
538	0.592593
539	0.611111
540	0.62963
541	0.641975
542	0.654321
543	0.666667
544	0.679012
545	0.691358
546	0.703704
547	0.709877
548	0.728395
549	0.746914
550	0.753086
551	0.771605
552	0.783951
553	0.796296
554	0.808642
555	0.820988
556	0.833333
557	0.845679
558	0.858025
559	0.87037
560	0.882716
561	0.888889
562	0.901235
563	0.91358
564	0.919753
565	0.91358
566	0.938272
567	0.950617
568	0.95679
569	0.962963
570	0.969136
571	0.962963
572	0.969136
573	0.966049
574	0.969136
575	0.972222
576	0.975309
577	0.978395
578	0.981481
579	0.984568
580	0.987654
581	0.990741
582	0.993827
583	0.996914
584	1
585	1
586	1
587	1
588	0.981481
589	0.993827
590	0.968107
591	0.960905
592	0.953704
593	0.946502
594	0.9393
595	0.932099
596	0.944444
597	0.925926
598	0.91358
599	0.901235
600	0.888889
601	0.876543
602	0.864198
603	0.845679
604	0.833333
605	0.814815
606	0.796296
607	0.783951
608	0.765432
609	0.746914
610	0.740741
611	0.709877
612	0.685185
613	0.666667
614	0.648148
615	0.623457
616	0.604938
617	0.58642
618	0.561728
619	0.537037
620	0.518519
621	0.487654
622	0.469136
623	0.450617
624	0.432099
625	0.407407
626	0.382716
627	0.364198
628	0.345679
629	0.320988
630	0.302469
631	0.283951
632	0.265432
633	0.246914
634	0.228395
635	0.216049
636	0.197531
637	0.185185
638	0.166667
639	0.154321
640	0.141975
641	0.12963
642	0.117284
643	0.104938
644	0.0925926
645	0.0864198
646	0.0740741
647	0.0679012
648	0.0617284
649	0.0493827
650	0.0432099
651	0.037037
652	0.0308642
653	0.0246914
654	0.0246914
655	0.0185185
656	0.0123457
657	0.0123457
658	0.00617284
659	0.00617284
660	0

File: P3.csv
Wavelength (nm),Absorbance
437,0.634146
438,0.646341
439,0.652439
440,0.664634
441,0.676829
442,0.682927
443,0.695122
444,0.707317
445,0.719512
446,0.731707
447,0.737805
448,0.75
449,0.762195
450,0.77439
451,0.786585
452,0.79878
453,0.810976
454,0.823171
455,0.835366
456,0.847561
457,0.859756
458,0.871951
459,0.884146
460,0.896341
461,0.908537
462,0.914634
463,0.926829
464,0.932927
465,0.945122
466,0.95122
467,0.957317
468,0.969512
469,0.97561
470,0.97561
471,0.981707
472,0.987805
473,0.987805
474,0.987805
475,0.993902
476,0.993902
477,0.987805
478,0.987805
479,0.987805
480,0.981707
481,0.97561
482,0.969512
483,0.963415
484,0.957317
485,0.95122
486,0.939024
487,0.926829
488,0.914634
489,0.902439
490,0.890244
491,0.878049
492,0.865854
493,0.853659
494,0.835366
495,0.817073
496,0.804878
497,0.792683
498,0.780488
499,0.762195
500,0.75
501,0.737805
502,0.72561
503,0.713415
504,0.70122
505,0.689024
506,0.682927
507,0.670732
508,0.664634
509,0.652439
510,0.646341
511,0.640244
512,0.634146
513,0.628049
514,0.628049
515,0.628049
516,0.628049
517,0.628049
518,0.628049
519,0.628049
520,0.628049
521,0.634146
522,0.640244
523,0.646341
524,0.652439
525,0.658537
526,0.664634
527,0.676829
528,0.682927
529,0.695122
530,0.707317
531,0.713415
532,0.72561
533,0.737805
534,0.75
535,0.762195
536,0.77439
537,0.786585
538,0.792683
539,0.804878
540,0.817073
541,0.829268
542,0.841463
543,0.853659
544,0.859756
545,0.871951
546,0.884146
547,0.896341
548,0.908537
549,0.914634
550,0.920732
551,0.932927
552,0.939024
553,0.95122
554,0.957317
555,0.969512
556,0.97561
557,0.981707
558,0.987805
559,0.993902
560,0.993902
561,1
562,1
563,1
564,1
565,1
566,1
567,1
568,1
569,1
570,1
571,1
572,1
573,1
574,1
575,0.987805
576,0.987805
577,0.981707
578,0.97561
579,0.969512
580,0.963415
581,0.95122
582,0.939024
583,0.932927
584,0.920732
585,0.908537
586,0.896341
587,0.890244
588,0.865854
589,0.853659
590,0.841463
591,0.829268
592,0.810976
593,0.792683
594,0.77439
595,0.762195
596,0.743902
597,0.72561
598,0.707317
599,0.689024
600,0.670732
601,0.652439
602,0.634146
603,0.609756
604,0.597561
605,0.573171
606,0.554878
607,0.536585
608,0.518293
609,0.506098
610,0.481707
611,0.463415
612,0.439024
613,0.420732
614,0.402439
615,0.384146
616,0.365854
617,0.347561
618,0.329268
619,0.317073
620,0.29878
621,0.27439
622,0.262195
623,0.25
624,0.237805
625,0.219512
626,0.207317
627,0.195122
628,0.182927
629,0.170732
630,0.152439
631,0.146341
632,0.134146
633,0.121951
634,0.115854
635,0.103659
636,0.097561
637,0.0914634
638,0.0853659
639,0.0731707
640,0.0670732
641,0.06097561
642,0.054878
643,0.0487805
644,0.0487805
645,0.0426829
646,0.0365854
647,0.0304878
648,0.0304878
649,0.0304878
650,0.0243902
651,0.0243902
652,0.0182927
653,0.0182927
654,0.0121951
655,0.0121951
656,0.0121951
657,0.006097561
658,0.006097561
659,0.006097561
660,0.006097561
661,0.006097561
662,0.006097561
663,0.006097561
664,0.006097561
665,0.006097561
666,0
667,0
668,0
669,0
670,0
671,0
672,0
673,0
674,0

File: P4.csv
Wavelength (nm),Absorbance
436,0.22561
437,0.231707
438,0.231707
439,0.237805
440,0.243902
441,0.243902
442,0.256098
443,0.256098
444,0.262195
445,0.268293
446,0.270325
447,0.278455
448,0.286585
449,0.292683
450,0.29878
451,0.310976
452,0.323171
453,0.329268
454,0.335366
455,0.347561
456,0.353659
457,0.371951
458,0.390244
459,0.396341
460,0.396341
461,0.414634
462,0.420732
463,0.432927
464,0.445122
465,0.457317
466,0.469512
467,0.469512
468,0.487805
469,0.512195
470,0.530488
471,0.54878
472,0.560976
473,0.567073
474,0.585366
475,0.609756
476,0.621951
477,0.621951
478,0.643293
479,0.682927
480,0.676829
481,0.695122
482,0.695122
483,0.713415
484,0.743902
485,0.756098
486,0.768293
487,0.780488
488,0.780488
489,0.817073
490,0.853659
491,0.829268
492,0.871951
493,0.871951
494,0.871951
495,0.885163
496,0.898374
497,0.911585
498,0.924797
499,0.938008
500,0.95122
501,0.963415
502,0.97561
503,0.981707
504,0.993902
505,0.987805
506,1
507,1
508,1
509,1
510,1
511,1
512,1
513,1
514,1
515,0.981707
516,0.993902
517,0.987805
518,0.987805
519,0.966463
520,0.957317
521,0.939024
522,0.926829
523,0.914634
524,0.902439
525,0.890244
526,0.878049
527,0.847561
528,0.835366
529,0.823171
530,0.79878
531,0.756098
532,0.756098
533,0.75
534,0.707317
535,0.664634
536,0.658537
537,0.646341
538,0.615854
539,0.615854
540,0.560976
541,0.542683
542,0.52439
543,0.506098
544,0.481707
545,0.45122
546,0.417683
547,0.390244
548,0.384146
549,0.359756
550,0.341463
551,0.317073
552,0.292683
553,0.27439
554,0.25
555,0.219512
556,0.213415
557,0.189024
558,0.176829
559,0.152439
560,0.146341
561,0.134146
562,0.121951
563,0.103659
564,0.0914634
565,0.0731707
566,0.0670732
567,0.0670732
568,0.0670732
569,0.0487805
570,0.0426829
571,0.0365854
572,0.0304878
573,0.0243902
574,0.0182927
575,0.0182927
576,0.0121951
577,0.0121951
578,0.006097561
579,0.006097561
580,0.006097561
581,0.006097561
582,0
583,0

File: P5.csv
Wavelength (nm),Absorbance
355,0.303687
357,0.31557
359,0.324657
361,0.341717
363,0.35365
365,0.370567
367,0.387223
369,0.402489
371,0.415306
373,0.427784
375,0.44518
377,0.449196
379,0.458023
381,0.474343
383,0.489449
385,0.491552
387,0.495084
389,0.518384
391,0.518479
393,0.537801
395,0.533933
397,0.539449
399,0.538916
401,0.530816
403,0.52682
405,0.509559
407,0.508377
409,0.491425
411,0.479749
413,0.464704
415,0.448673
417,0.425167
419,0.399769
421,0.378368
423,0.351134
425,0.328259
427,0.294293
429,0.281512
431,0.24589
433,0.22292
435,0.199469
437,0.183908
439,0.171998
441,0.160709
443,0.15046
445,0.14182
447,0.138206
449,0.131433
451,0.131137
453,0.131137
455,0.131137
457,0.131137
459,0.131354
461,0.131143
463,0.136967
465,0.139575
467,0.141869
469,0.148796
471,0.150547
473,0.156344
475,0.159096
477,0.16618
479,0.168896
481,0.178507
483,0.181282
485,0.18999
487,0.194277
489,0.201996
491,0.206772
493,0.214681
495,0.221654
497,0.224584
499,0.234896
501,0.242514
503,0.24819
505,0.255194
507,0.263142
509,0.272135
511,0.279521
513,0.291349
515,0.29614
517,0.306493
519,0.315133
521,0.322028
523,0.332289
525,0.342494
527,0.351237
529,0.361984
531,0.369873
533,0.382316
535,0.393165
537,0.402788
539,0.412003
541,0.423478
543,0.433923
545,0.445883
547,0.458159
549,0.469452
551,0.481652
553,0.497124
555,0.505694
557,0.523227
559,0.534067
561,0.545824
563,0.563886
565,0.573886
567,0.589168
569,0.601768
571,0.615775
573,0.63027
575,0.646914
577,0.658323
579,0.674522
581,0.688454
583,0.70317
585,0.720865
587,0.735356
589,0.747433
591,0.761299
593,0.780253
595,0.794095
597,0.80373
599,0.819968
601,0.837605
603,0.851062
605,0.863349
607,0.868315
609,0.887693
611,0.902457
613,0.912867
615,0.92176
617,0.933858
619,0.942266
621,0.950494
623,0.961619
625,0.969749
627,0.975524
629,0.97886
631,0.986388
633,0.991437
635,0.99373
637,0.998815
639,1.00159
641,1.00245
643,1.002
645,1.00295
647,1.00203
649,0.998743
651,0.995061
653,0.993299
655,0.987016
657,0.983455
659,0.972782
661,0.96762
663,0.954594
665,0.946106
667,0.933781
669,0.922708
671,0.907823
673,0.880834
675,0.865584
677,0.843396
679,0.821904
681,0.796467
683,0.768035
685,0.750059
687,0.720048
689,0.683667
691,0.651892
693,0.620578
695,0.590789
697,0.553514
699,0.539579
701,0.485447
703,0.457476
705,0.421952
707,0.392454
709,0.367462
711,0.330899
713,0.302539
715,0.280158
717,0.25699
719,0.237306
721,0.214093
723,0.194172
725,0.173742
727,0.159801
729,0.149766
731,0.131493
733,0.124757
735,0.110172
737,0.103989
739,0.094218
741,0.0872149
743,0.082419
745,0.0753442
747,0.06822175
749,0.0674414
751,0.0620806
753,0.0593108
755,0.0565869
757,0.0523751
759,0.0494404
761,0.0475129
763,0.0456753
765,0.0423784
767,0.0403539
769,0.0377885
771,0.0349979
773,0.0329262
775,0.0310886
777,0.0282376
779,0.0270438
781,0.0255759
783,0.0219418
785,0.0207389
787,0.0193464
789,0.0162178

File: P5.txt
Wavelength (nm)	Absorbance
355	0.303687
357	0.31557
359	0.324657
361	0.341717
363	0.35365
365	0.370567
367	0.387223
369	0.402489
371	0.415306
373	0.427784
375	0.44518
377	0.449196
379	0.458023
381	0.474343
383	0.489449
385	0.491552
387	0.495084
389	0.518384
391	0.518479
393	0.537801
395	0.533933
397	0.539449
399	0.538916
401	0.530816
403	0.52682
405	0.509559
407	0.508377
409	0.491425
411	0.479749
413	0.464704
415	0.448673
417	0.425167
419	0.399769
421	0.378368
423	0.351134
425	0.328259
427	0.294293
429	0.281512
431	0.24589
433	0.22292
435	0.199469
437	0.183908
439	0.171998
441	0.160709
443	0.15046
445	0.14182
447	0.138206
449	0.131433
451	0.131137
453	0.131137
455	0.131137
457	0.131137
459	0.131354
461	0.131143
463	0.136967
465	0.139575
467	0.141869
469	0.148796
471	0.150547
473	0.156344
475	0.159096
477	0.16618
479	0.168896
481	0.178507
483	0.181282
485	0.18999
487	0.194277
489	0.201996
491	0.206772
493	0.214681
495	0.221654
497	0.224584
499	0.234896
501	0.242514
503	0.24819
505	0.255194
507	0.263142
509	0.272135
511	0.279521
513	0.291349
515	0.29614
517	0.306493
519	0.315133
521	0.322028
523	0.332289
525	0.342494
527	0.351237
529	0.361984
531	0.369873
533	0.382316
535	0.393165
537	0.402788
539	0.412003
541	0.423478
543	0.433923
545	0.445883
547	0.458159
549	0.469452
551	0.481652
553	0.497124
555	0.505694
557	0.523227
559	0.534067
561	0.545824
563	0.563886
565	0.573886
567	0.589168
569	0.601768
571	0.615775
573	0.63027
575	0.646914
577	0.658323
579	0.674522
581	0.688454
583	0.70317
585	0.720865
587	0.735356
589	0.747433
591	0.761299
593	0.780253
595	0.794095
597	0.80373
599	0.819968
601	0.837605
603	0.851062
605	0.863349
607	0.868315
609	0.887693
611	0.902457
613	0.912867
615	0.92176
617	0.933858
619	0.942266
621	0.950494
623	0.961619
625	0.969749
627	0.975524
629	0.97886
631	0.986388
633	0.991437
635	0.99373
637	0.998815
639	1.00159
641	1.00245
643	1.002
645	1.00295
647	1.00203
649	0.998743
651	0.995061
653	0.993299
655	0.987016
657	0.983455
659	0.972782
661	0.96762
663	0.954594
665	0.946106
667	0.933781
669	0.922708
671	0.907823
673	0.880834
675	0.865584
677	0.843396
679	0.821904
681	0.796467
683	0.768035
685	0.750059
687	0.720048
689	0.683667
691	0.651892
693	0.620578
695	0.590789
697	0.553514
699	0.539579
701	0.485447
703	0.457476
705	0.421952
707	0.392454
709	0.367462
711	0.330899
713	0.302539
715	0.280158
717	0.25699
719	0.237306
721	0.214093
723	0.194172
725	0.173742
727	0.159801
729	0.149766
731	0.131493
733	0.124757
735	0.110172
737	0.103989
739	0.094218
741	0.0872149
743	0.082419
745	0.0753442
747	0.06822175
749	0.0674414
751	0.0620806
753	0.0593108
755	0.0565869
757	0.0523751
759	0.0494404
761	0.0475129
763	0.0456753
765	0.04237842
767	0.0403539
769	0.0377885
771	0.0349979
773	0.0329262
775	0.0310886
777	0.0282376
779	0.0270438
781	0.0255759
783	0.02194182
785	0.0207389
787	0.0193464
789	0.01621777

File: P6.csv
Wavelength (nm),Absorbance
440,0.363636
441,0.350649
442,0.37013
443,0.363636
444,0.376623
445,0.38961
446,0.396104
447,0.402597
448,0.409091
449,0.422078
450,0.409091
451,0.415584
452,0.422078
453,0.430736
454,0.439394
455,0.448052
456,0.461039
457,0.474026
458,0.480519
459,0.480519
460,0.5
461,0.519481
462,0.525974
463,0.538961
464,0.545455
465,0.558442
466,0.564935
467,0.577922
468,0.590909
469,0.597403
470,0.61039
471,0.616883
472,0.62987
473,0.636364
474,0.649351
475,0.655844
476,0.668831
477,0.675325
478,0.681818
479,0.688312
480,0.694805
481,0.701299
482,0.688312
483,0.687013
484,0.685714
485,0.684416
486,0.683117
487,0.681818
488,0.680519
489,0.679221
490,0.677922
491,0.676623
492,0.675325
493,0.681818
494,0.675325
495,0.662338
496,0.662338
497,0.655844
498,0.642857
499,0.636364
500,0.623377
501,0.61039
502,0.603896
503,0.564935
504,0.564935
505,0.545455
506,0.532468
507,0.519481
508,0.5
509,0.480519
510,0.467532
511,0.454545
512,0.423701
513,0.412338
514,0.400974
515,0.38961
516,0.396104
517,0.38961
518,0.383117
519,0.383117
520,0.376623
521,0.376623
522,0.376623
523,0.383117
524,0.376623
525,0.376623
526,0.396104
527,0.402597
528,0.409091
529,0.415584
530,0.422078
531,0.435065
532,0.441558
533,0.448052
534,0.441558
535,0.467532
536,0.474026
537,0.487013
538,0.5
539,0.512987
540,0.519481
541,0.525974
542,0.538961
543,0.551948
544,0.558442
545,0.571429
546,0.584416
547,0.571429
548,0.603896
549,0.616883
550,0.62987
551,0.636364
552,0.649351
553,0.662338
554,0.675325
555,0.688312
556,0.694805
557,0.714286
558,0.720779
559,0.733766
560,0.746753
561,0.733766
562,0.766234
563,0.772727
564,0.785714
565,0.798701
566,0.811688
567,0.818182
568,0.831169
569,0.837662
570,0.850649
571,0.857143
572,0.87013
573,0.876623
574,0.87013
575,0.876623
576,0.886724
577,0.896825
578,0.906926
579,0.917027
580,0.927128
581,0.937229
582,0.94733
583,0.957431
584,0.967532
585,0.974026
586,0.980519
587,0.987013
588,0.993506
589,1
590,0.987013
591,0.987013
592,0.993506
593,0.992641
594,0.991775
595,0.990909
596,0.990043
597,0.989177
598,0.988312
599,0.987446
600,0.98658
601,0.985714
602,0.984848
603,0.983983
604,0.983117
605,0.982251
606,0.981385
607,0.980519
608,0.987013
609,0.974026
610,0.980519
611,0.974026
612,0.967532
613,0.961039
614,0.954545
615,0.941558
616,0.935065
617,0.922078
618,0.915584
619,0.902597
620,0.896104
621,0.883117
622,0.87013
623,0.857143
624,0.844156
625,0.831169
626,0.818182
627,0.805195
628,0.785714
629,0.772727
630,0.733766
631,0.733766
632,0.714286
633,0.707792
634,0.675325
635,0.655844
636,0.636364
637,0.61039
638,0.590909
639,0.564935
640,0.545455
641,0.5
642,0.487013
643,0.467532
644,0.441558
645,0.422078
646,0.396104
647,0.37013
648,0.344156
649,0.324675
650,0.298701
651,0.272727
652,0.253247
653,0.233766
654,0.214286
655,0.188312
656,0.175325
657,0.155844
658,0.136364
659,0.116883
660,0.103896
661,0.0909091
662,0.0779221
663,0.0649351
664,0.0519481
665,0.038961
666,0.0324675
667,0.0194805
668,0.012987
669,0

File: P7.txt
Wavelength (nm)	Absorbance
436	0.325
437	0.33125
438	0.33125
439	0.3375
440	0.34375
441	0.34375
442	0.35
443	0.35625
444	0.3625
445	0.3625
446	0.36875
447	0.36875
448	0.375
449	0.38125
450	0.38125
451	0.3875
452	0.39375
453	0.4
454	0.4
455	0.4125
456	0.41875
457	0.425
458	0.43125
459	0.4375
460	0.44375
461	0.45
462	0.4625
463	0.46875
464	0.46875
465	0.48125
466	0.49375
467	0.5
468	0.50625
469	0.51875
470	0.525
471	0.53125
472	0.54375
473	0.55
474	0.5625
475	0.56875
476	0.58125
477	0.5875
478	0.6
479	0.60625
480	0.61875
481	0.625
482	0.6375
483	0.64375
484	0.65
485	0.6625
486	0.66875
487	0.675
488	0.68125
489	0.69375
490	0.7
491	0.70625
492	0.71875
493	0.725
494	0.725
495	0.7375
496	0.7375
497	0.74375
498	0.75
499	0.75
500	0.75
501	0.75
502	0.75
503	0.75
504	0.75
505	0.74375
506	0.74375
507	0.7375
508	0.7375
509	0.73125
510	0.725
511	0.725
512	0.71875
513	0.7125
514	0.7125
515	0.70625
516	0.7
517	0.69375
518	0.6875
519	0.6875
520	0.68125
521	0.675
522	0.6625
523	0.6625
524	0.65
525	0.64375
526	0.6375
527	0.61875
528	0.61875
529	0.6125
530	0.60625
531	0.6
532	0.59375
533	0.5875
534	0.5875
535	0.5875
536	0.5875
537	0.5875
538	0.5875
539	0.59375
540	0.6
541	0.60625
542	0.6125
543	0.61875
544	0.625
545	0.6375
546	0.64375
547	0.65625
548	0.6625
549	0.675
550	0.6875
551	0.69375
552	0.70625
553	0.71875
554	0.725
555	0.7375
556	0.75
557	0.75625
558	0.76875
559	0.78125
560	0.79375
561	0.80625
562	0.8125
563	0.825
564	0.8375
565	0.84375
566	0.85625
567	0.86875
568	0.875
569	0.8875
570	0.89375
571	0.90625
572	0.9125
573	0.925
574	0.93125
575	0.93125
576	0.94375
577	0.95
578	0.9625
579	0.96875
580	0.975
581	0.98125
582	0.98125
583	0.9875
584	0.99375
585	0.99375
586	1
587	1
588	1
589	1
590	1
591	1
592	1
593	1
594	1
595	1
596	1
597	0.99375
598	0.9875
599	0.9875
600	0.98125
601	0.975
602	0.975
603	0.9625
604	0.95625
605	0.95
606	0.94375
607	0.93125
608	0.91875
609	0.9125
610	0.9
611	0.8875
612	0.88125
613	0.8625
614	0.85
615	0.8375
616	0.825
617	0.80625
618	0.7875
619	0.78125
620	0.76875
621	0.7375
622	0.7125
623	0.7125
624	0.69375
625	0.675
626	0.654167
627	0.633333
628	0.6125
629	0.591667
630	0.570833
631	0.55
632	0.529167
633	0.508333
634	0.4875
635	0.4625
636	0.44375
637	0.425
638	0.40625
639	0.3875
640	0.36875
641	0.35
642	0.33125
643	0.3125
644	0.29375
645	0.275
646	0.25625
647	0.2375
648	0.21875
649	0.2
650	0.18125
651	0.1625
652	0.15625
653	0.14375
654	0.125
655	0.1125
656	0.10625
657	0.09375
658	0.0875
659	0.075
660	0.06875
661	0.05625
662	0.05
663	0.04375
664	0.03125
665	0.03125
666	0.025
667	0.01875
668	0.0125
669	0.009375
670	0.00625
671	0.003125
672	0
673	0

File: P8.csv
Wavelength (nm),Absorbance
435,0.0843373
436,0.0858434
437,0.0873494
438,0.0888554
439,0.0903614
440,0.0903614
441,0.0903614
442,0.0903614
443,0.0903614
444,0.0903614
445,0.0903614
446,0.0963855
447,0.0963855
448,0.0963855
449,0.0963855
450,0.10241
451,0.100402
452,0.0983936
453,0.0963855
454,0.108434
455,0.108434
456,0.108434
457,0.114458
458,0.114458
459,0.114458
460,0.120482
461,0.11747
462,0.126506
463,0.129518
464,0.13253
465,0.114458
466,0.126506
467,0.138554
468,0.13253
469,0.126506
470,0.13253
471,0.138554
472,0.144578
473,0.150602
474,0.156627
475,0.144578
476,0.162651
477,0.153614
478,0.156627
479,0.174699
480,0.165663
481,0.168675
482,0.174699
483,0.178715
484,0.182731
485,0.186747
486,0.216867
487,0.216867
488,0.222892
489,0.228916
490,0.216867
491,0.23494
492,0.253012
493,0.259036
494,0.26506
495,0.277108
496,0.283133
497,0.289157
498,0.301205
499,0.289157
500,0.319277
501,0.331325
502,0.343373
503,0.349398
504,0.361446
505,0.36747
506,0.379518
507,0.391566
508,0.39759
509,0.415663
510,0.427711
511,0.433735
512,0.427711
513,0.463855
514,0.475904
515,0.493976
516,0.506024
517,0.524096
518,0.536145
519,0.548193
520,0.566265
521,0.578313
522,0.596386
523,0.674699
524,0.626506
525,0.626506
526,0.656627
527,0.668675
528,0.680723
529,0.692771
530,0.704819
531,0.692771
532,0.73494
533,0.753012
534,0.76506
535,0.777108
536,0.795181
537,0.813253
538,0.831325
539,0.849398
540,0.86747
541,0.885542
542,0.903614
543,0.921687
544,0.939759
545,0.957831
546,0.96988
547,0.981928
548,0.963855
549,0.975904
550,1
551,1
552,1
553,1
554,1
555,0.993976
556,0.987952
557,0.957831
558,0.963855
559,0.957831
560,0.951807
561,0.939759
562,0.933735
563,0.921687
564,0.921687
565,0.933735
566,0.939759
567,0.927711
568,0.945783
569,0.951807
570,0.939759
571,0.945783
572,0.957831
573,0.957831
574,0.951807
575,0.915663
576,0.915663
577,0.921687
578,0.885542
579,0.873494
580,0.843373
581,0.813253
582,0.789157
583,0.771084
584,0.680723
585,0.60241
586,0.560241
587,0.5
588,0.445783
589,0.385542
590,0.325301
591,0.307229
592,0.240964
593,0.186747
594,0.150602
595,0.120482
596,0.105852
597,0.091222
598,0.0765921
599,0.0619621
600,0.0473322
601,0.0327022
602,0.0180723
603,0.0210843
604,0.0240964
605,0.0210843
606,0.0180723
607,0.0180723
608,0.0120482
609,0.0120482
610,0.0120482
611,0.0120482
612,0.0120482
613,0.0120482
614,0.009036145
615,0.006024096
616,0.006024096
617,0.003012048
618,0
619,0