Folder: Polymer_electronics_multimodal_database/conjugated_ECPs/uv_vis_automated/Nature Materials, 2008, 7, 795–799/metadata (part 2)

File: P9.txt
Wavelength (nm)	Absorbance
360	0.341948
362	0.353502
364	0.364576
366	0.375441
368	0.386306
370	0.397172
372	0.408037
374	0.420772
376	0.436685
378	0.452597
380	0.466336
382	0.479233
384	0.492131
386	0.505069
388	0.518225
390	0.531382
392	0.54436
394	0.554732
396	0.565105
398	0.575477
400	0.58585
402	0.596222
404	0.608771
406	0.621337
408	0.633903
410	0.644506
412	0.654227
414	0.663948
416	0.673669
418	0.683389
420	0.690403
422	0.693465
424	0.696527
426	0.699589
428	0.702651
430	0.705713
432	0.708775
434	0.711837
436	0.714899
438	0.717959
440	0.720932
442	0.7239059
444	0.72688
446	0.729853
448	0.732827
450	0.7358
452	0.738774
454	0.741748
456	0.744721
458	0.747695
460	0.750669
462	0.754392
464	0.758956
466	0.763521
468	0.768086
470	0.77265
472	0.777215
474	0.78178
476	0.786345
478	0.790909
480	0.795474
482	0.800961
484	0.808041
486	0.815122
488	0.822203
490	0.829283
492	0.836369
494	0.843745
496	0.85112
498	0.858495
500	0.865871
502	0.873246
504	0.880264
506	0.886119
508	0.891974
510	0.897829
512	0.903684
514	0.909539
516	0.9153937
518	0.922263
520	0.930014
522	0.937765
524	0.945516
526	0.953267
528	0.961204
530	0.969962
532	0.97872
534	0.987477
536	0.996235
538	1.00499
540	1.00975
542	1.01431
544	1.01888
546	1.02344
548	1.02801
550	1.03257
552	1.03714
554	1.0417
556	1.04564
558	1.04899
560	1.05233
562	1.05568
564	1.05902
566	1.06237
568	1.06571
570	1.06906
572	1.07241
574	1.07575
576	1.0791
578	1.08308
580	1.0872
582	1.09133
584	1.09545
586	1.09958
588	1.1037
590	1.10783
592	1.11196
594	1.11608
596	1.11898
598	1.11718
600	1.11538
602	1.11358
604	1.11178
606	1.10998
608	1.10818
610	1.10638
612	1.10458
614	1.10278
616	1.10098
618	1.09918
620	1.09738
622	1.09586
624	1.09529
626	1.09471
628	1.09414
630	1.09357
632	1.093
634	1.09243
636	1.09186
638	1.09129
640	1.09072
642	1.09014
644	1.08957
646	1.089
648	1.08769
650	1.08224
652	1.07679
654	1.07134
656	1.06589
658	1.06044
660	1.055
662	1.04955
664	1.0441
666	1.03865
668	1.03023
670	1.02132
672	1.01241
674	1.00351
676	0.994599
678	0.982527
680	0.968752
682	0.954976
684	0.940031
686	0.922617
688	0.905203
690	0.888488
692	0.875695
694	0.862902
696	0.850108
698	0.821355
700	0.790089
702	0.755669
704	0.723799
706	0.692523
708	0.653361
710	0.607693
712	0.58467
714	0.561646
716	0.504831
718	0.487147
720	0.471581
722	0.456015
724	0.398316
726	0.375559
728	0.344985
730	0.32847
732	0.31703
734	0.30559
736	0.294149
738	0.272109
740	0.231635
742	0.216609
744	0.202707
746	0.190526
748	0.178346
750	0.166165
752	0.152659
754	0.138561
756	0.125184
758	0.115029
760	0.104873
762	0.0947174
764	0.0845617
766	0.0797868
768	0.076608
770	0.0734292
772	0.0702504
774	0.0670717
776	0.0638929
778	0.0607141
780	0.0575353
782	0.0558895
784	0.0544597
786	0.0530298
788	0.0516
790	0.05017016
792	0.0487403
794	0.0473105
796	0.0458806
798	0.0444508
799	0.0437359